File: ITO_MLI/XPS--15_1-Wide.txt
# Transition                      wide
# Notes
# Creation Comment
# Energy Mode                     KE
# Start Energy in eV              150
# End Energy in eV                1260
# Energy Step in eV               0.5
# Number Of Sweeps                1
# Dwell Time per Sweep in s       0.3
# Analyser Mode                   CAE
# Pass Energy in eV/Retard Ratio  50
# Magnification                   high
# Divide Voltages By 10           off
# Excitation Source               Mg Ka 1253.6 eV normal
# Excitation Energy in eV         1253.6
# Analyser Workfunction in eV     4.5
# Entrance Slit                   6 x 12 mm
# Exit Slit                       5 x 11 mm
#
#
# Kinetic Energy in eV         Counts
# --------------------         ------
150.000                    19548.9
151.000                    19331.9
152.000                    19311.3
153.000                    19260.2
154.000                    19300.7
155.000                    18992.2
156.000                    19164.8
157.000                    19011.8
158.000                    18931.4
159.000                    18744.6
160.000                    18673.1
161.000                    18762.9
162.000                    18774
163.000                    18603
164.000                    18354.4
165.000                    18374.7
166.000                    18375.4
167.000                    18206.2
168.000                    18121.3
169.000                    18015.2
170.000                    17972
171.000                    18398.7
172.000                    19092.4
173.000                    20142.3
174.000                    19749.2
175.000                    18597.1
176.000                    17664.8
177.000                    17454.2
178.000                    17653.9
179.000                    17435.3
180.000                    17627
181.000                    17323.1
182.000                    17395.1
183.000                    17394
184.000                    17203.2
185.000                    16916.6
186.000                    16993.6
187.000                    16879.6
188.000                    16812
189.000                    16825.2
190.000                    16848.6
191.000                    16828.4
192.000                    16850
193.000                    16684.8
194.000                    16401.1
195.000                    16277.5
196.000                    16450.4
197.000                    16249.8
198.000                    16195.2
199.000                    16340.9
200.000                    16230.1
201.000                    16197.3
202.000                    16073.6
203.000                    16115
204.000                    16145.3
205.000                    16407.5
206.000                    16378.5
207.000                    16516
208.000                    16107.5
209.000                    16272.1
210.000                    15764.9
211.000                    15486.8
212.000                    15524.8
213.000                    15396.9
214.000                    15210.5
215.000                    15106.7
216.000                    15120.8
217.000                    15099
218.000                    15010.1
219.000                    14915.5
220.000                    14921
221.000                    15125
222.000                    14931.3
223.000                    15180.7
224.000                    14993.5
225.000                    15003
226.000                    14856
227.000                    15080.5
228.000                    15189
229.000                    15178.8
230.000                    15182.9
231.000                    15469.7
232.000                    15441.6
233.000                    15450.4
234.000                    15308.6
235.000                    15066.4
236.000                    14940.7
237.000                    15010
238.000                    14913.3
239.000                    15046.7
240.000                    15059.5
241.000                    14940.9
242.000                    14971.9
243.000                    14979.8
244.000                    14625.1
245.000                    14869.6
246.000                    15000.7
247.000                    15069.4
248.000                    15049.2
249.000                    15237.9
250.000                    15390.8
251.000                    15477.1
252.000                    15342.3
253.000                    15184.7
254.000                    15237.3
255.000                    15235.5
256.000                    15139
257.000                    15005.5
258.000                    14841.5
259.000                    14768.5
260.000                    14446
261.000                    14360.4
262.000                    14300.7
263.000                    13958.1
264.000                    13828.6
265.000                    13936.2
266.000                    13450.4
267.000                    13384
268.000                    13533.2
269.000                    13173.9
270.000                    13354.2
271.000                    13111
272.000                    13027.7
273.000                    13040
274.000                    12995
275.000                    12986.4
276.000                    12886.2
277.000                    12901.2
278.000                    12820
279.000                    12893.1
280.000                    12882.7
281.000                    13048.5
282.000                    12521.1
283.000                    12612.7
284.000                    12850.4
285.000                    12734.6
286.000                    12892.7
287.000                    12871.6
288.000                    12927.7
289.000                    12546
290.000                    12571.6
291.000                    12608.1
292.000                    12532.2
293.000                    12467.5
294.000                    12582.8
295.000                    12666
296.000                    12540
297.000                    12447.8
298.000                    12597.7
299.000                    12576.3
300.000                    12668.2
301.000                    12636
302.000                    12403.2
303.000                    12591.6
304.000                    12678.1
305.000                    12716
306.000                    12624.2
307.000                    12552.9
308.000                    12446.8
309.000                    12692.5
310.000                    12572.8
311.000                    12612.7
312.000                    12545.4
313.000                    12680.3
314.000                    12682
315.000                    12617.3
316.000                    12586.5
317.000                    12574.6
318.000                    12334
319.000                    12441
320.000                    12499.9
321.000                    12579.1
322.000                    12583
323.000                    12435.2
324.000                    12459.4
325.000                    12382.2
326.000                    12338.2
327.000                    12518.2
328.000                    12628.4
329.000                    12493.9
330.000                    12338.6
331.000                    12316.5
332.000                    12516.5
333.000                    12514.9
334.000                    12387.9
335.000                    12307.5
336.000                    12662.3
337.000                    12508.1
338.000                    12416.6
339.000                    12480.5
340.000                    12317.7
341.000                    12607.2
342.000                    12544.1
343.000                    12561.8
344.000                    12418.1
345.000                    12278
346.000                    12629.3
347.000                    12479.5
348.000                    12560.1
349.000                    12665.5
350.000                    12507.8
351.000                    12562.5
352.000                    12486
353.000                    12626.1
354.000                    12480.6
355.000                    12508.2
356.000                    12645.9
357.000                    12554.7
358.000                    12626.6
359.000                    12583.2
360.000                    12552
361.000                    12690.2
362.000                    12651
363.000                    12732.5
364.000                    12629.4
365.000                    12648.4
366.000                    12696.2
367.000                    12652.8
368.000                    12592
369.000                    12615.5
370.000                    12741.6
371.000                    12722.1
372.000                    12673.4
373.000                    12735.6
374.000                    12791.2
375.000                    12643
376.000                    12802.4
377.000                    12618.7
378.000                    12828.2
379.000                    12862.9
380.000                    12717.6
381.000                    12753
382.000                    12796
383.000                    12791.7
384.000                    12801.4
385.000                    12831.4
386.000                    13012.2
387.000                    12643.4
388.000                    12867
389.000                    13041.2
390.000                    12992.2
391.000                    12864.1
392.000                    12949.1
393.000                    12882.8
394.000                    13293.1
395.000                    13202.6
396.000                    13500.4
397.000                    13325.6
398.000                    13258.5
399.000                    13203.6
400.000                    13160.1
401.000                    13262.5
402.000                    13149.8
403.000                    13264.4
404.000                    13128.1
405.000                    12981.8
406.000                    13289.8
407.000                    13332.2
408.000                    13142
409.000                    13357.9
410.000                    13180.7
411.000                    13532.9
412.000                    13361.4
413.000                    13330.8
414.000                    13417.5
415.000                    13424.4
416.000                    13276.2
417.000                    13412
418.000                    13502.9
419.000                    13467
420.000                    13502.7
421.000                    13369.1
422.000                    13584.2
423.000                    13524.7
424.000                    13574.8
425.000                    13443.7
426.000                    13481.9
427.000                    13567.1
428.000                    13799.1
429.000                    13589
430.000                    13865.1
431.000                    13721.8
432.000                    13871.3
433.000                    13834.5
434.000                    13848.9
435.000                    13837.5
436.000                    13772.6
437.000                    14109.8
438.000                    14419.9
439.000                    14520.9
440.000                    14890.5
441.000                    15213.4
442.000                    15234.2
443.000                    14892.3
444.000                    14469.2
445.000                    14410.2
446.000                    14468.9
447.000                    14385.6
448.000                    14432.6
449.000                    14642.1
450.000                    14558.2
451.000                    14414.6
452.000                    14717.1
453.000                    14821
454.000                    14819.9
455.000                    15031.9
456.000                    15022.6
457.000                    15116.7
458.000                    15335.1
459.000                    15367.9
460.000                    15486.1
461.000                    15450.4
462.000                    15734.4
463.000                    16151.3
464.000                    15937.8
465.000                    15610.2
466.000                    15440.6
467.000                    15246.2
468.000                    15135.2
469.000                    15145.1
470.000                    15562.2
471.000                    15385.2
472.000                    15875.8
473.000                    16064.8
474.000                    16576.2
475.000                    17127.1
476.000                    17438.8
477.000                    17930.4
478.000                    18157.3
479.000                    17726.4
480.000                    17016.1
481.000                    16075.2
482.000                    15743.4
483.000                    15215.7
484.000                    14845.3
485.000                    14761.5
486.000                    14583.1
487.000                    13912.3
488.000                    13487.3
489.000                    13330.5
490.000                    13750.7
491.000                    13691.1
492.000                    14236.1
493.000                    15135.9
494.000                    16398.5
495.000                    18140.8
496.000                    20155.4
497.000                    21715.7
498.000                    23299.2
499.000                    23186.9
500.000                    21375
501.000                    18679.9
502.000                    16499.9
503.000                    15139.2
504.000                    14096.9
505.000                    13306
506.000                    12584.1
507.000                    11838.8
508.000                    11107.1
509.000                    10400.5
510.000                     9730.5
511.000                     9284.7
512.000                     8871.6
513.000                     8618.1
514.000                     8596.3
515.000                     8656.1
516.000                     8455.2
517.000                     8611.8
518.000                     8367.2
519.000                     8338.4
520.000                     8241.7
521.000                     8247.4
522.000                     8260.7
523.000                     8380.7
524.000                     8267.6
525.000                     8364
526.000                     8295.1
527.000                     8198.8
528.000                     8370.4
529.000                     8277.7
530.000                     8294.8
531.000                     8303.2
532.000                     8358.3
533.000                     8489.1
534.000                     8172.7
535.000                     8324.1
536.000                     8413.5
537.000                     8319.9
538.000                     8219.6
539.000                     8375.8
540.000                     8279.9
541.000                     8228.4
542.000                     8270.7
543.000                     8379.6
544.000                     8181.4
545.000                     8197
546.000                     8132.2
547.000                     8087.1
548.000                     8141.7
549.000                     8224.8
550.000                     8218.2
551.000                     8132.2
552.000                     8060.5
553.000                     8074.3
554.000                     8267
555.000                     8284.2
556.000                     8221.7
557.000                     8265.2
558.000                     8416.8
559.000                     8493.1
560.000                     8376.7
561.000                     8177
562.000                     8262.8
563.000                     8194.6
564.000                     8320.8
565.000                     8296.6
566.000                     8192.8
567.000                     8246.4
568.000                     8159
569.000                     8310.6
570.000                     8242.8
571.000                     8263.6
572.000                     8292.2
573.000                     8231.2
574.000                     8306.4
575.000                     8191.8
576.000                     8168.4
577.000                     8273
578.000                     8139.5
579.000                     8360.1
580.000                     8237.4
581.000                     8371.4
582.000                     8221.7
583.000                     8248.5
584.000                     8240
585.000                     8292.9
586.000                     8356.2
587.000                     8285.6
588.000                     8315.6
589.000                     8274.4
590.000                     8430.7
591.000                     8269.6
592.000                     8352.9
593.000                     8407.9
594.000                     8345.1
595.000                     8303.9
596.000                     8237.7
597.000                     8414.3
598.000                     8491.7
599.000                     8303.8
600.000                     8245.8
601.000                     8448
602.000                     8206.6
603.000                     8548.6
604.000                     8372.8
605.000                     8452.7
606.000                     8494.6
607.000                     8513.4
608.000                     8360.3
609.000                     8431.6
610.000                     8695.2
611.000                     8485
612.000                     8502.3
613.000                     8542.2
614.000                     8547.3
615.000                     8643.2
616.000                     8458.8
617.000                     8477.9
618.000                     8674
619.000                     8534.5
620.000                     8576.5
621.000                     8693
622.000                     8534.6
623.000                     8558.7
624.000                     8601.9
625.000                     8723
626.000                     8696.4
627.000                     8754.5
628.000                     8705.9
629.000                     8797.1
630.000                     8690.7
631.000                     8787.8
632.000                     8620.6
633.000                     8778
634.000                     8811.5
635.000                     8910.6
636.000                     8930.1
637.000                     8971.3
638.000                     8859.3
639.000                     8745.5
640.000                     8880.3
641.000                     8700.3
642.000                     8979.6
643.000                     8998.9
644.000                     8934.9
645.000                     9119.6
646.000                     9145.3
647.000                     9073.8
648.000                     9003.1
649.000                     9013.8
650.000                     9271.9
651.000                     9041.6
652.000                     8986.8
653.000                     9022.8
654.000                     9096.9
655.000                     8973.8
656.000                     9187.7
657.000                     9174.7
658.000                     9177.4
659.000                     9314.1
660.000                     9229.8
661.000                     9279.1
662.000                     9340.1
663.000                     9334.1
664.000                     9470.2
665.000                     9388.9
666.000                     9461.6
667.000                     9411.7
668.000                     9522.5
669.000                     9379.8
670.000                     9385.8
671.000                     9484.7
672.000                     9354.4
673.000                     9531.5
674.000                     9541.8
675.000                     9526.3
676.000                     9558.5
677.000                     9454.3
678.000                     9534.8
679.000                     9505.4
680.000                     9459.6
681.000                     9507.8
682.000                     9693.2
683.000                     9645.3
684.000                     9939.4
685.000                    10198.7
686.000                    10536.2
687.000                    10813.3
688.000                    10898.6
689.000                    11025.8
690.000                    11121.1
691.000                    10847
692.000                    10410.6
693.000                    10283.2
694.000                     9695.3
695.000                     9557.3
696.000                     9364.3
697.000                     8999.5
698.000                     8682.3
699.000                     8604.3
700.000                     8433.2
701.000                     8218.3
702.000                     7762.7
703.000                     7534.6
704.000                     7070.2
705.000                     7003.3
706.000                     7003.7
707.000                     6905.6
708.000                     7280.7
709.000                     9029.1
710.000                    14643.4
711.000                    26922.5
712.000                    35737.6
713.000                    28510.5
714.000                    14313.6
715.000                     7965.1
716.000                     6882.7
717.000                     6751.3
718.000                     6836.6
719.000                     7340.9
720.000                     8529.6
721.000                     9060.5
722.000                     8642
723.000                     7693.2
724.000                     6620.9
725.000                     5954.5
726.000                     5873.1
727.000                     5747.9
728.000                     5856.1
729.000                     6044.4
730.000                     6037.5
731.000                     5970.3
732.000                     5864.8
733.000                     5918.9
734.000                     5833.7
735.000                     5763
736.000                     5735.9
737.000                     5682.1
738.000                     5766.9
739.000                     5684.5
740.000                     5705.2
741.000                     5620.5
742.000                     5785.6
743.000                     5630.5
744.000                     5633.3
745.000                     5577.6
746.000                     5610.8
747.000                     5609.8
748.000                     5597.3
749.000                     5653.5
750.000                     5585.9
751.000                     5598.7
752.000                     5717
753.000                     5588.4
754.000                     5675.6
755.000                     5599.1
756.000                     5571.4
757.000                     5704.6
758.000                     5785.8
759.000                     5735.6
760.000                     5683.2
761.000                     5580.2
762.000                     5714.3
763.000                     5573.6
764.000                     5541.4
765.000                     5535.5
766.000                     5646.8
767.000                     5589.1
768.000                     5516
769.000                     5614.7
770.000                     5494.3
771.000                     5587
772.000                     5531.4
773.000                     5568.9
774.000                     5501
775.000                     5624
776.000                     5551.9
777.000                     5513.2
778.000                     5541.6
779.000                     5457.4
780.000                     5452
781.000                     5544.1
782.000                     5643.1
783.000                     5521.9
784.000                     5398.5
785.000                     5476
786.000                     5477.8
787.000                     5513.9
788.000                     5541.1
789.000                     5561.7
790.000                     5524.3
791.000                     5508.2
792.000                     5602.2
793.000                     5479.1
794.000                     5569.3
795.000                     5574.5
796.000                     5458.8
797.000                     5492
798.000                     5531
799.000                     5426.2
800.000                     5502.8
801.000                     5475.3
802.000                     5474.6
803.000                     5525.8
804.000                     5586.6
805.000                     5594.8
806.000                     5573.5
807.000                     5553.3
808.000                     5549.7
809.000                     5383.5
810.000                     5581.7
811.000                     5468.3
812.000                     5524
813.000                     5506.3
814.000                     5487.8
815.000                     5542
816.000                     5580.5
817.000                     5398.8
818.000                     5519.1
819.000                     5394.9
820.000                     5543
821.000                     5425.8
822.000                     5429.6
823.000                     5652.7
824.000                     5531.6
825.000                     5498.2
826.000                     5374.4
827.000                     5488.7
828.000                     5368.7
829.000                     5554.7
830.000                     5422.7
831.000                     5425.5
832.000                     5504.3
833.000                     5437.1
834.000                     5604.7
835.000                     5436.2
836.000                     5538.1
837.000                     5427.6
838.000                     5474.2
839.000                     5489.2
840.000                     5451.6
841.000                     5434.2
842.000                     5654.7
843.000                     5532
844.000                     5618.8
845.000                     5722.2
846.000                     5481.1
847.000                     5515.7
848.000                     5523.2
849.000                     5428
850.000                     5501.1
851.000                     5472.5
852.000                     5503.2
853.000                     5373.3
854.000                     5497.7
855.000                     5464.4
856.000                     5467
857.000                     5489.5
858.000                     5486.2
859.000                     5410
860.000                     5417.7
861.000                     5496.9
862.000                     5387.1
863.000                     5518.9
864.000                     5514.7
865.000                     5568.1
866.000                     5527.6
867.000                     5507.9
868.000                     5431.8
869.000                     5416.8
870.000                     5491.8
871.000                     5471.2
872.000                     5457.5
873.000                     5537.6
874.000                     5446.5
875.000                     5476.8
876.000                     5636.8
877.000                     5497.5
878.000                     5437.3
879.000                     5525.8
880.000                     5463.4
881.000                     5433.8
882.000                     5514.3
883.000                     5391.2
884.000                     5390.8
885.000                     5530.8
886.000                     5559.6
887.000                     5504.3
888.000                     5528.6
889.000                     5443
890.000                     5589.8
891.000                     5529.5
892.000                     5554.9
893.000                     5586.6
894.000                     5633
895.000                     5628.2
896.000                     5710.1
897.000                     5655.4
898.000                     5547.9
899.000                     5521.5
900.000                     5672.1
901.000                     5673.2
902.000                     5590.3
903.000                     5602.1
904.000                     5580.7
905.000                     5655.4
906.000                     5561.7
907.000                     5589.5
908.000                     5652.6
909.000                     5756.6
910.000                     5523.2
911.000                     5551.5
912.000                     5656.2
913.000                     5750
914.000                     5617
915.000                     5536.8
916.000                     5651.5
917.000                     5642.1
918.000                     5606.6
919.000                     5587.2
920.000                     5582.5
921.000                     5617.8
922.000                     5869.5
923.000                     5796.2
924.000                     5815
925.000                     5778.9
926.000                     5655.6
927.000                     5734.6
928.000                     5693.3
929.000                     5539.2
930.000                     5700.7
931.000                     5684.8
932.000                     5669.4
933.000                     5778
934.000                     5618.8
935.000                     5507.7
936.000                     5684.1
937.000                     5619
938.000                     5729.7
939.000                     5767.8
940.000                     5678.2
941.000                     5612.2
942.000                     5624.8
943.000                     5671.6
944.000                     5666.1
945.000                     5787.8
946.000                     5711.6
947.000                     5594.7
948.000                     5581.9
949.000                     5661.6
950.000                     5473.7
951.000                     5577.2
952.000                     5704.6
953.000                     5676.6
954.000                     5768.3
955.000                     5948.1
956.000                     6349.9
957.000                     7213.4
958.000                     7702.4
959.000                     6911.1
960.000                     5966.4
961.000                     5692.6
962.000                     5531.3
963.000                     5644.8
964.000                     5530.9
965.000                     5648.1
966.000                     5702.6
967.000                     5878.6
968.000                     5689.2
969.000                     5567.1
970.000                     5512.2
971.000                     5335.4
972.000                     5495.9
973.000                     5589.5
974.000                     5588
975.000                     5613.8
976.000                     5601.7
977.000                     5806.6
978.000                     6007.8
979.000                     5858
980.000                     5708.2
981.000                     5519.5
982.000                     5393.7
983.000                     5418.6
984.000                     5355.1
985.000                     5474.5
986.000                     5417.9
987.000                     5419.1
988.000                     5268.6
989.000                     5443.3
990.000                     5369.4
991.000                     5338.8
992.000                     5318.5
993.000                     5376.6
994.000                     5370.4
995.000                     5414.2
996.000                     5222.2
997.000                     5530.9
998.000                     5589.9
999.000                     5704.2
1000.000                    5827.6
1001.000                    5689.4
1002.000                    5529.5
1003.000                    5367.1
1004.000                    5385.8
1005.000                    5325.4
1006.000                    5269.4
1007.000                    5313.3
1008.000                    5450.5
1009.000                    5388.4
1010.000                    5362.1
1011.000                    5314.3
1012.000                    5307.6
1013.000                    5307
1014.000                    5444.6
1015.000                    5348.8
1016.000                    5329.2
1017.000                    5418.8
1018.000                    5258.8
1019.000                    5222.7
1020.000                    5317.1
1021.000                    5377.6
1022.000                    5297.6
1023.000                    5409.7
1024.000                    5285.6
1025.000                    5274
1026.000                    5323.2
1027.000                    5303.3
1028.000                    5322.6
1029.000                    5433.8
1030.000                    5345.2
1031.000                    5267.7
1032.000                    5327.5
1033.000                    5338
1034.000                    5347.9
1035.000                    5359.4
1036.000                    5420.1
1037.000                    5360.2
1038.000                    5206.6
1039.000                    5383.7
1040.000                    5460.6
1041.000                    5350.1
1042.000                    5277.6
1043.000                    5425.3
1044.000                    5412.6
1045.000                    5492.4
1046.000                    5478.5
1047.000                    5440.5
1048.000                    5437.5
1049.000                    5384.1
1050.000                    5392.5
1051.000                    5488.5
1052.000                    5320.2
1053.000                    5432.6
1054.000                    5303.5
1055.000                    5486.8
1056.000                    5405.1
1057.000                    5522.2
1058.000                    5322
1059.000                    5450.7
1060.000                    5456.7
1061.000                    5568.3
1062.000                    5381.6
1063.000                    5674.6
1064.000                    5422.4
1065.000                    5477.9
1066.000                    5492.5
1067.000                    5390.7
1068.000                    5408.5
1069.000                    5438.7
1070.000                    5517.3
1071.000                    5456
1072.000                    5458.9
1073.000                    5374.6
1074.000                    5423.9
1075.000                    5482.2
1076.000                    5389.1
1077.000                    5507.7
1078.000                    5494.8
1079.000                    5383.2
1080.000                    5532.8
1081.000                    5479.9
1082.000                    5476.6
1083.000                    5365.4
1084.000                    5279.2
1085.000                    5494.2
1086.000                    5588.7
1087.000                    5463.3
1088.000                    5583.3
1089.000                    5601.9
1090.000                    5773.4
1091.000                    5541.3
1092.000                    5444.3
1093.000                    5592.4
1094.000                    5625.3
1095.000                    5617.7
1096.000                    5531.6
1097.000                    5545.9
1098.000                    5572.9
1099.000                    5484.8
1100.000                    5534.9
1101.000                    5539.8
1102.000                    5464.4
1103.000                    5523.9
1104.000                    5444
1105.000                    5427
1106.000                    5527.4
1107.000                    5618
1108.000                    5514.7
1109.000                    5539.9
1110.000                    5677.1
1111.000                    5506.1
1112.000                    5082.7
1113.000                    5008.2
1114.000                    4887.5
1115.000                    4861.8
1116.000                    4875.4
1117.000                    4892.1
1118.000                    5073.7
1119.000                    5012.6
1120.000                    5411
1121.000                    6429.5
1122.000                    8142.6
1123.000                    8873
1124.000                    7755.5
1125.000                    6814.7
1126.000                    6116.9
1127.000                    5077.3
1128.000                    4799.9
1129.000                    4658.8
1130.000                    4821.9
1131.000                    4978.5
1132.000                    4945.8
1133.000                    4984.7
1134.000                    4729.5
1135.000                    4708.4
1136.000                    4557.4
1137.000                    4574.1
1138.000                    4523
1139.000                    4596
1140.000                    4665.8
1141.000                    4659.1
1142.000                    4371.2
1143.000                    4374.4
1144.000                    4467.6
1145.000                    4385
1146.000                    4333.7
1147.000                    4344.7
1148.000                    4313.2
1149.000                    4344.7
1150.000                    4390.8
1151.000                    4267.1
1152.000                    4280.9
1153.000                    4365.7
1154.000                    4453.1
1155.000                    4586.5
1156.000                    4260.5
1157.000                    4027.3
1158.000                    3786.2
1159.000                    3806.7
1160.000                    3779
1161.000                    3741
1162.000                    3698
1163.000                    3725.3
1164.000                    3892
1165.000                    4124.2
1166.000                    5291.4
1167.000                    7261.9
1168.000                    7228.6
1169.000                    5369.9
1170.000                    5139.7
1171.000                    4698.4
1172.000                    3658.1
1173.000                    3483.2
1174.000                    3557.3
1175.000                    3707.9
1176.000                    3908.8
1177.000                    3781.8
1178.000                    3739.6
1179.000                    3706
1180.000                    3549.7
1181.000                    3491.9
1182.000                    3481.1
1183.000                    3418.5
1184.000                    3427.1
1185.000                    3346.1
1186.000                    3377
1187.000                    3459.1
1188.000                    3457.5
1189.000                    3442.7
1190.000                    3473
1191.000                    3468.7
1192.000                    3390.1
1193.000                    3394
1194.000                    3412.8
1195.000                    3428.3
1196.000                    3552.3
1197.000                    3503.8
1198.000                    3464.8
1199.000                    3417.3
1200.000                    3421.1
1201.000                    3277.1
1202.000                    3354
1203.000                    3392.5
1204.000                    3441.6
1205.000                    3347.7
1206.000                    3371.7
1207.000                    3419.9
1208.000                    3400.2
1209.000                    3483
1210.000                    3392.5
1211.000                    3470.6
1212.000                    3489.8
1213.000                    3412.6
1214.000                    3537.8
1215.000                    3658.7
1216.000                    3729.4
1217.000                    3982.1
1218.000                    4125.3
1219.000                    4016.9
1220.000                    3696.2
1221.000                    3515.2
1222.000                    3460.8
1223.000                    3416.9
1224.000                    3342.2
1225.000                    3450.8
1226.000                    3241.8
1227.000                    3335.3
1228.000                    3416.3
1229.000                    3386.8
1230.000                    3489.4
1231.000                    3579.8
1232.000                    3594.2
1233.000                    3605.4
1234.000                    3481.2
1235.000                    3487.2
1236.000                    3482.7
1237.000                    3425.3
1238.000                    3247.1
1239.000                    3227.1
1240.000                    3255.3
1241.000                    3314.9
1242.000                    3227
1243.000                    3260.4
1244.000                    3155.5
1245.000                    3195.2
1246.000                    3283.9
1247.000                    3208.2
1248.000                    3338
1249.000                    3226.9
1250.000                    3280
1251.000                    3199.4
1252.000                    3273.4
1253.000                    3226.2
1254.000                    3213.8
1255.000                    3273.5
1256.000                    3285.1
1257.000                    3116.3
1258.000                    3251.8
1259.000                    3262.5
1260.000                    3221.6