File: ITO_MLI/XPS--18_1-O1s.txt
# Transition                      O 1s
# Notes
# Creation Comment
# Energy Mode                     KE
# Start Energy in eV              705
# End Energy in eV                735
# Energy Step in eV               0.1
# Number Of Sweeps                1
# Dwell Time per Sweep in s       0.3
# Analyser Mode                   CAE
# Pass Energy in eV/Retard Ratio  25
# Magnification                   high
# Divide Voltages By 10           off
# Excitation Source               Mg Ka 1253.6 eV normal
# Excitation Energy in eV         1253.6
# Analyser Workfunction in eV     4.5
# Entrance Slit                   6 x 12 mm
# Exit Slit                       5 x 11 mm
#
#
# Kinetic Energy in eV         Counts
# --------------------         ------
705.000                     1860.25
705.100                     1871.5
705.200                     1887.75
705.300                     1863.25
705.400                     1844
705.500                     1838.5
705.600                     1840
705.700                     1790.75
705.800                     1769.75
705.900                     1860.75
706.000                     1829.5
706.100                     1845
706.200                     1808
706.300                     1782.75
706.400                     1756.25
706.500                     1778.25
706.600                     1798
706.700                     1892.25
706.800                     1834.25
706.900                     1800.25
707.000                     1753
707.100                     1816.5
707.200                     1811.25
707.300                     1907.5
707.400                     1778.5
707.500                     1748.75
707.600                     1822.75
707.700                     1776.5
707.800                     1783.25
707.900                     1814.5
708.000                     1829.75
708.100                     1847.25
708.200                     1883.5
708.300                     1831.25
708.400                     1825
708.500                     1874.75
708.600                     1812.5
708.700                     1892.75
708.800                     1873.75
708.900                     1929.5
709.000                     1962.5
709.100                     1936.5
709.200                     2008.25
709.300                     2023
709.400                     2066.75
709.500                     2108.75
709.600                     2101.75
709.700                     2207.5
709.800                     2290.5
709.900                     2426.25
710.000                     2489.25
710.100                     2509.75
710.200                     2644.25
710.300                     2803
710.400                     2965.5
710.500                     3145
710.600                     3279.75
710.700                     3490.25
710.800                     3722.75
710.900                     3960.25
711.000                     4342.75
711.100                     4509
711.200                     4787.5
711.300                     5209.25
711.400                     5516.5
711.500                     5963.5
711.600                     6299.25
711.700                     6799.75
711.800                     7251.75
711.900                     7693
712.000                     8009.5
712.100                     8488.5
712.200                     8826
712.300                     9296.25
712.400                     9354.5
712.500                     9541
712.600                     9715.25
712.700                     9714.5
712.800                     9539.5
712.900                     9427.25
713.000                     9249.25
713.100                     8895.25
713.200                     8555
713.300                     8259.5
713.400                     7687.75
713.500                     7115
713.600                     6630.25
713.700                     6031.75
713.800                     5478.75
713.900                     5158.75
714.000                     4689.75
714.100                     4397.75
714.200                     3913.25
714.300                     3532.25
714.400                     3248.5
714.500                     3040.25
714.600                     2928.75
714.700                     2724
714.800                     2502.5
714.900                     2419.5
715.000                     2264.5
715.100                     2207.5
715.200                     2101
715.300                     2047
715.400                     1979.5
715.500                     1916.5
715.600                     1915.75
715.700                     1901.5
715.800                     1858.25
715.900                     1763.75
716.000                     1782
716.100                     1810.25
716.200                     1829
716.300                     1803
716.400                     1770.25
716.500                     1780.25
716.600                     1745.5
716.700                     1800
716.800                     1816.5
716.900                     1743.75
717.000                     1750
717.100                     1762.25
717.200                     1870.25
717.300                     1820
717.400                     1856
717.500                     1767.5
717.600                     1770
717.700                     1844.5
717.800                     1773.75
717.900                     1786.25
718.000                     1795.5
718.100                     1708.25
718.200                     1755
718.300                     1750.25
718.400                     1748
718.500                     1738
718.600                     1718
718.700                     1753
718.800                     1778.25
718.900                     1790
719.000                     1822.5
719.100                     1779.5
719.200                     1843
719.300                     1781.5
719.400                     1809.5
719.500                     1850
719.600                     1859
719.700                     1904.75
719.800                     1908.75
719.900                     1960
720.000                     1989.25
720.100                     1971
720.200                     2033.75
720.300                     2124
720.400                     2089.25
720.500                     2114.5
720.600                     2140.5
720.700                     2251
720.800                     2313.75
720.900                     2256
721.000                     2287.25
721.100                     2295.5
721.200                     2348.5
721.300                     2397.75
721.400                     2334.5
721.500                     2371.75
721.600                     2360
721.700                     2382.75
721.800                     2328
721.900                     2315.25
722.000                     2290.75
722.100                     2317.75
722.200                     2356.75
722.300                     2348
722.400                     2210.5
722.500                     2206.25
722.600                     2219.75
722.700                     2216.5
722.800                     2136.75
722.900                     2111.75
723.000                     2115.25
723.100                     2086
723.200                     2072.25
723.300                     2092.25
723.400                     2042
723.500                     2047.25
723.600                     1950.25
723.700                     1999.75
723.800                     1935.25
723.900                     1874
724.000                     1821.25
724.100                     1823.5
724.200                     1880.75
724.300                     1805
724.400                     1798.25
724.500                     1695.75
724.600                     1673.25
724.700                     1628.5
724.800                     1651.25
724.900                     1627.5
725.000                     1620.5
725.100                     1579
725.200                     1617.25
725.300                     1608.75
725.400                     1557.5
725.500                     1632.75
725.600                     1561
725.700                     1626.25
725.800                     1523.75
725.900                     1552.5
726.000                     1574.5
726.100                     1583.5
726.200                     1522.75
726.300                     1539.75
726.400                     1564.75
726.500                     1614.75
726.600                     1600.5
726.700                     1602.75
726.800                     1559.25
726.900                     1564.25
727.000                     1528
727.100                     1577
727.200                     1592
727.300                     1607.25
727.400                     1583.75
727.500                     1621
727.600                     1502.25
727.700                     1518.25
727.800                     1552.75
727.900                     1545
728.000                     1588
728.100                     1559
728.200                     1589
728.300                     1557.75
728.400                     1586
728.500                     1600.5
728.600                     1613
728.700                     1586.5
728.800                     1657.75
728.900                     1643.25
729.000                     1547.25
729.100                     1560.5
729.200                     1592.75
729.300                     1562.25
729.400                     1533.75
729.500                     1591.25
729.600                     1590.75
729.700                     1540.25
729.800                     1546.25
729.900                     1633.5
730.000                     1609.25
730.100                     1602.25
730.200                     1611.25
730.300                     1599.5
730.400                     1598.25
730.500                     1611
730.600                     1628.5
730.700                     1528.75
730.800                     1597.5
730.900                     1601
731.000                     1619.75
731.100                     1595.5
731.200                     1602.75
731.300                     1651
731.400                     1577.5
731.500                     1634.25
731.600                     1573.75
731.700                     1581.75
731.800                     1590
731.900                     1608
732.000                     1544.5
732.100                     1618.75
732.200                     1591.25
732.300                     1601.75
732.400                     1628.5
732.500                     1564.75
732.600                     1582.25
732.700                     1619
732.800                     1591.75
732.900                     1629
733.000                     1588
733.100                     1559.75
733.200                     1604.5
733.300                     1575
733.400                     1580.75
733.500                     1511.5
733.600                     1592.75
733.700                     1638.25
733.800                     1518.5
733.900                     1534.5
734.000                     1624.5
734.100                     1529
734.200                     1512.5
734.300                     1516.25
734.400                     1526.5
734.500                     1556.75
734.600                     1517.75
734.700                     1576.75
734.800                     1612.75
734.900                     1599.5
735.000                     1546