File: ITO_MLI/XPS--17_1-C1s.txt
# Transition                      C 1s
# Notes
# Creation Comment
# Energy Mode                     KE
# Start Energy in eV              945
# End Energy in eV                975
# Energy Step in eV               0.1
# Number Of Sweeps                5
# Dwell Time per Sweep in s       0.3
# Analyser Mode                   CAE
# Pass Energy in eV/Retard Ratio  25
# Magnification                   high
# Divide Voltages By 10           off
# Excitation Source               Mg Ka 1253.6 eV normal
# Excitation Energy in eV         1253.6
# Analyser Workfunction in eV     4.5
# Entrance Slit                   6 x 12 mm
# Exit Slit                       5 x 11 mm
#
#
# Kinetic Energy in eV         Counts
# --------------------         ------
945.000                     7926.75
945.100                     7978.5
945.200                     8014.25
945.300                     7996
945.400                     7935.5
945.500                     7922.5
945.600                     7907.75
945.700                     7863
945.800                     7831.25
945.900                     7864.5
946.000                     7925.25
946.100                     7879.25
946.200                     7937.25
946.300                     7845.25
946.400                     7724.75
946.500                     7789.75
946.600                     7674.75
946.700                     7697.75
946.800                     7620
946.900                     7726
947.000                     7567.75
947.100                     7681
947.200                     7593.25
947.300                     7682.75
947.400                     7609
947.500                     7594.75
947.600                     7611.5
947.700                     7510.75
947.800                     7643.75
947.900                     7480.5
948.000                     7515.5
948.100                     7448
948.200                     7528.75
948.300                     7500
948.400                     7606.75
948.500                     7561.25
948.600                     7629.25
948.700                     7502.75
948.800                     7432.5
948.900                     7563.5
949.000                     7586.25
949.100                     7583.75
949.200                     7623.25
949.300                     7636.75
949.400                     7710.5
949.500                     7694.75
949.600                     7622.25
949.700                     7758.5
949.800                     7755.5
949.900                     7731.5
950.000                     7678.5
950.100                     7512.75
950.200                     7618.25
950.300                     7694.75
950.400                     7630.5
950.500                     7561.75
950.600                     7717.75
950.700                     7606.5
950.800                     7710.75
950.900                     7634.5
951.000                     7715.75
951.100                     7670
951.200                     7690.5
951.300                     7540
951.400                     7540.75
951.500                     7641.5
951.600                     7687.5
951.700                     7661.5
951.800                     7772
951.900                     7605
952.000                     7748.5
952.100                     7666.5
952.200                     7760.75
952.300                     7608.5
952.400                     7674.25
952.500                     7801.5
952.600                     7736
952.700                     7826.5
952.800                     7747.75
952.900                     7785.75
953.000                     7879.25
953.100                     7697
953.200                     7673
953.300                     7784.5
953.400                     7763.75
953.500                     7801.75
953.600                     7756.75
953.700                     7663.5
953.800                     7765.75
953.900                     7822.25
954.000                     7801.25
954.100                     7842
954.200                     7750.75
954.300                     7872
954.400                     7923.75
954.500                     7933.75
954.600                     7847
954.700                     7997
954.800                     7801.5
954.900                     7788.5
955.000                     7901
955.100                     7927.75
955.200                     7778
955.300                     7788.25
955.400                     7863.25
955.500                     7923.25
955.600                     8064
955.700                     8040
955.800                     7890.5
955.900                     8038
956.000                     7973
956.100                     8116.25
956.200                     8173.75
956.300                     8130.75
956.400                     8279.25
956.500                     8217
956.600                     8288.75
956.700                     8429
956.800                     8488
956.900                     8784.25
957.000                     8769
957.100                     8963.25
957.200                     9028.75
957.300                     9419.5
957.400                     9647.75
957.500                     9935
957.600                    10128.5
957.700                    10360.8
957.800                    10494.2
957.900                    10668.2
958.000                    10747.8
958.100                    11184.2
958.200                    11175
958.300                    11265
958.400                    11300.8
958.500                    11087.2
958.600                    11080.5
958.700                    11186
958.800                    11006.5
958.900                    10591.5
959.000                    10330
959.100                    10158.8
959.200                     9922
959.300                     9614.25
959.400                     9442.75
959.500                     9150
959.600                     9124.5
959.700                     8743.25
959.800                     8562
959.900                     8478.75
960.000                     8450
960.100                     8288
960.200                     8177.75
960.300                     8065
960.400                     7884.5
960.500                     7681.75
960.600                     7678
960.700                     7541.25
960.800                     7624
960.900                     7731.25
961.000                     7619.5
961.100                     7574.5
961.200                     7613.75
961.300                     7670.75
961.400                     7640.5
961.500                     7328
961.600                     7445.5
961.700                     7530.5
961.800                     7512.25
961.900                     7525.25
962.000                     7488.75
962.100                     7461.75
962.200                     7581.75
962.300                     7609.25
962.400                     7468.25
962.500                     7443.25
962.600                     7433.5
962.700                     7547.75
962.800                     7438.5
962.900                     7418.75
963.000                     7633.75
963.100                     7587.5
963.200                     7450.5
963.300                     7603
963.400                     7480.75
963.500                     7417.5
963.600                     7505.25
963.700                     7506.25
963.800                     7538
963.900                     7528.25
964.000                     7494.25
964.100                     7559
964.200                     7599.5
964.300                     7608.25
964.400                     7519
964.500                     7475.25
964.600                     7529.75
964.700                     7550.5
964.800                     7482.25
964.900                     7615.5
965.000                     7440.75
965.100                     7414.25
965.200                     7454.75
965.300                     7525.75
965.400                     7626
965.500                     7654.75
965.600                     7582.5
965.700                     7487.5
965.800                     7515
965.900                     7615.5
966.000                     7677
966.100                     7685
966.200                     7808
966.300                     7790.25
966.400                     7741
966.500                     7808
966.600                     7862.5
966.700                     7789.25
966.800                     7817.5
966.900                     7928.25
967.000                     7792.25
967.100                     7675.5
967.200                     7871.5
967.300                     7833.25
967.400                     7765
967.500                     7818.5
967.600                     7722.75
967.700                     7797.5
967.800                     7814.5
967.900                     7722.5
968.000                     7805.25
968.100                     7885.5
968.200                     7747
968.300                     7712.25
968.400                     7817
968.500                     7879.25
968.600                     7723.25
968.700                     7634
968.800                     7783.75
968.900                     7799.75
969.000                     7801
969.100                     7714.5
969.200                     7713.75
969.300                     7634
969.400                     7670.5
969.500                     7498.25
969.600                     7474.75
969.700                     7561.75
969.800                     7484.75
969.900                     7415.25
970.000                     7304.5
970.100                     7575.25
970.200                     7544.25
970.300                     7523.75
970.400                     7499.25
970.500                     7436.5
970.600                     7360.25
970.700                     7286.75
970.800                     7535
970.900                     7568.5
971.000                     7576.75
971.100                     7391
971.200                     7361.75
971.300                     7453.25
971.400                     7514.25
971.500                     7427.5
971.600                     7491.5
971.700                     7501.25
971.800                     7472.25
971.900                     7443.75
972.000                     7371
972.100                     7516.5
972.200                     7539.75
972.300                     7545
972.400                     7494.5
972.500                     7454.25
972.600                     7403.25
972.700                     7528
972.800                     7478.75
972.900                     7524.5
973.000                     7310
973.100                     7422.75
973.200                     7556.25
973.300                     7448.25
973.400                     7553.5
973.500                     7514.75
973.600                     7626
973.700                     7489
973.800                     7549.75
973.900                     7650.25
974.000                     7481.25
974.100                     7542
974.200                     7592.25
974.300                     7688.5
974.400                     7645.5
974.500                     7549.5
974.600                     7348
974.700                     7472
974.800                     7629.25
974.900                     7734.25
975.000                     7551.5