File: ITO_Radiator/XPS--9_1-wide.txt
# Transition                      wide
# Notes
# Creation Comment
# Energy Mode                     KE
# Start Energy in eV              150
# End Energy in eV                1260
# Energy Step in eV               0.5
# Number Of Sweeps                1
# Dwell Time per Sweep in s       0.2
# Analyser Mode                   CAE
# Pass Energy in eV/Retard Ratio  50
# Magnification                   high
# Divide Voltages By 10           off
# Excitation Source               Mg Ka 1253.6 eV normal
# Excitation Energy in eV         1253.6
# Analyser Workfunction in eV     4.5
# Entrance Slit                   6 x 12 mm
# Exit Slit                       5 x 11 mm
#
#
# Kinetic Energy in eV         Counts
# --------------------         ------
150.000                    92533.6
151.000                    92000
152.000                    92057.7
153.000                    92237.9
154.000                    91917.6
155.000                    91790.7
156.000                    92046.5
157.000                    91871.6
158.000                    91418.1
159.000                    91820.2
160.000                    91933.4
161.000                    91004.8
162.000                    90458
163.000                    90138.7
164.000                    88889.1
165.000                    88610.9
166.000                    87903.1
167.000                    87187.8
168.000                    87315.6
169.000                    87073.7
170.000                    86734.3
171.000                    85947.6
172.000                    85725
173.000                    85457.8
174.000                    85484.3
175.000                    85017.6
176.000                    84978.5
177.000                    84843.6
178.000                    84359.3
179.000                    84420.5
180.000                    84776.8
181.000                    85207.6
182.000                    84615.6
183.000                    83725.3
184.000                    83376
185.000                    82905.6
186.000                    82841
187.000                    83018.8
188.000                    82515.5
189.000                    81636.9
190.000                    81605.4
191.000                    82516.1
192.000                    81554.2
193.000                    81379.6
194.000                    80956.8
195.000                    80368.1
196.000                    79300.2
197.000                    79746
198.000                    79488.3
199.000                    80092.6
200.000                    79232.5
201.000                    78911.6
202.000                    78321.2
203.000                    78719.3
204.000                    78450.8
205.000                    78379.7
206.000                    78156.4
207.000                    78181
208.000                    78286.4
209.000                    78127.8
210.000                    78641
211.000                    77849.2
212.000                    78156.2
213.000                    77889.6
214.000                    77859.4
215.000                    78293.5
216.000                    77499.4
217.000                    77783.6
218.000                    76997.5
219.000                    76689.8
220.000                    75985
221.000                    75907
222.000                    76121.3
223.000                    75969.9
224.000                    75603.8
225.000                    75350.7
226.000                    75457.6
227.000                    76141.3
228.000                    76282.3
229.000                    76032.2
230.000                    76224.4
231.000                    75871.3
232.000                    75891.2
233.000                    75922.3
234.000                    75323.1
235.000                    74741.6
236.000                    74285.8
237.000                    75085
238.000                    75003.5
239.000                    74655.3
240.000                    75031.8
241.000                    74402.7
242.000                    73901.7
243.000                    73739.4
244.000                    73755.9
245.000                    73010.8
246.000                    73417.3
247.000                    73047.3
248.000                    72858.9
249.000                    72520.8
250.000                    72733.9
251.000                    72269.6
252.000                    72711.1
253.000                    72981.3
254.000                    72486.5
255.000                    72879.5
256.000                    72770.2
257.000                    72734.8
258.000                    73264.7
259.000                    73532.8
260.000                    73488.5
261.000                    73772.3
262.000                    73726.1
263.000                    74154.1
264.000                    73806.9
265.000                    73495.4
266.000                    73011.8
267.000                    72784.9
268.000                    71735.3
269.000                    71408.8
270.000                    70258.2
271.000                    70046
272.000                    69545.3
273.000                    69294.2
274.000                    68377.4
275.000                    68215.7
276.000                    67731
277.000                    68547.1
278.000                    67779.5
279.000                    68240.8
280.000                    67799.4
281.000                    68630.7
282.000                    68484.6
283.000                    68289.1
284.000                    68547.9
285.000                    68430.3
286.000                    68750.2
287.000                    68708.2
288.000                    68282.5
289.000                    68701.9
290.000                    68586.8
291.000                    68839.3
292.000                    69636.4
293.000                    69578.1
294.000                    69723.1
295.000                    68987.6
296.000                    68289.1
297.000                    67873.3
298.000                    67253.6
299.000                    67541.1
300.000                    66541.1
301.000                    66210.4
302.000                    65914.2
303.000                    65783.3
304.000                    65301.1
305.000                    65084.6
306.000                    64001.4
307.000                    64948.6
308.000                    65041.2
309.000                    65242.4
310.000                    64954.4
311.000                    65635.7
312.000                    65178.1
313.000                    65705.6
314.000                    65896.5
315.000                    66096.7
316.000                    66137.6
317.000                    66266.4
318.000                    66648.3
319.000                    66929.1
320.000                    67294.7
321.000                    67243.2
322.000                    66883.9
323.000                    67260.3
324.000                    67131.9
325.000                    66562.3
326.000                    66434.1
327.000                    67032.8
328.000                    66908.2
329.000                    67290.2
330.000                    67326.3
331.000                    67634.4
332.000                    67955.7
333.000                    67531
334.000                    67753.8
335.000                    67657
336.000                    67186.3
337.000                    65831
338.000                    65478.6
339.000                    64271
340.000                    62424.4
341.000                    61425.9
342.000                    60101.6
343.000                    59176.7
344.000                    56638.2
345.000                    55113.8
346.000                    54459.9
347.000                    53012.6
348.000                    51794.6
349.000                    50636.1
350.000                    49478.4
351.000                    48268.6
352.000                    47590.2
353.000                    47004.5
354.000                    45741.5
355.000                    45322.6
356.000                    45391.4
357.000                    45898.5
358.000                    46573.7
359.000                    46124.7
360.000                    45618.3
361.000                    45305.3
362.000                    45039.1
363.000                    45717
364.000                    45632.6
365.000                    44899.4
366.000                    44115.6
367.000                    43891.9
368.000                    43074.2
369.000                    42956.8
370.000                    43080.7
371.000                    43490
372.000                    43233.9
373.000                    42737.1
374.000                    43118.1
375.000                    42764.5
376.000                    42518.7
377.000                    43001.7
378.000                    42798.1
379.000                    43092.1
380.000                    42705.4
381.000                    43204.4
382.000                    43141.7
383.000                    43178
384.000                    43162.3
385.000                    43632.3
386.000                    43644.1
387.000                    43905.7
388.000                    43824.9
389.000                    43755.6
390.000                    44121
391.000                    44389
392.000                    44967.4
393.000                    45962.4
394.000                    46935.9
395.000                    48892.5
396.000                    50799.4
397.000                    56024.1
398.000                    63412.9
399.000                    67669.5
400.000                    66862.3
401.000                    63842.1
402.000                    57440.5
403.000                    52132.7
404.000                    49761.9
405.000                    51720.6
406.000                    54578.5
407.000                    51927.2
408.000                    46856
409.000                    41432.8
410.000                    37186.5
411.000                    34854.3
412.000                    33501.2
413.000                    32907.9
414.000                    33107.2
415.000                    32846.3
416.000                    33154.3
417.000                    33078.7
418.000                    33156.5
419.000                    33401.7
420.000                    33825.9
421.000                    33875.6
422.000                    34085.3
423.000                    34934.2
424.000                    35631
425.000                    35970.1
426.000                    35850.1
427.000                    35159.7
428.000                    33721.2
429.000                    32150.8
430.000                    31788.4
431.000                    31944.4
432.000                    32658.3
433.000                    32703.7
434.000                    31966.2
435.000                    31743.3
436.000                    31564.8
437.000                    31597.3
438.000                    31111.2
439.000                    30600.3
440.000                    30201.9
441.000                    29748.2
442.000                    29155.7
443.000                    29229.9
444.000                    28811.7
445.000                    28303.7
446.000                    27955.7
447.000                    27904.5
448.000                    28126.2
449.000                    27652.7
450.000                    27838.4
451.000                    27546.4
452.000                    27777
453.000                    27985.2
454.000                    27872.2
455.000                    27882.7
456.000                    27823
457.000                    27847.6
458.000                    27912.3
459.000                    27822.4
460.000                    27557.2
461.000                    27768.1
462.000                    27490.3
463.000                    27792.4
464.000                    27319.2
465.000                    27555.8
466.000                    27322.5
467.000                    27540.2
468.000                    27606.5
469.000                    27693.6
470.000                    27912.1
471.000                    28269.1
472.000                    28356.5
473.000                    29062.3
474.000                    29004.8
475.000                    29733.6
476.000                    29447.9
477.000                    29766.2
478.000                    29823.4
479.000                    29496.4
480.000                    29501.7
481.000                    29045.1
482.000                    28941
483.000                    28718.5
484.000                    28763.2
485.000                    29100.2
486.000                    29362.7
487.000                    29592.7
488.000                    29538.2
489.000                    29298.3
490.000                    29434
491.000                    29332.4
492.000                    29415
493.000                    28848.9
494.000                    28841.1
495.000                    28959.1
496.000                    28752.5
497.000                    28316.8
498.000                    27994.1
499.000                    27441.5
500.000                    27555.2
501.000                    27826.4
502.000                    27924.6
503.000                    27936.1
504.000                    28519.7
505.000                    28798.9
506.000                    29474.3
507.000                    29762
508.000                    30140.4
509.000                    30995.5
510.000                    32054.6
511.000                    32903.4
512.000                    33670.8
513.000                    31428.7
514.000                    29457.7
515.000                    27566.2
516.000                    26775
517.000                    25927
518.000                    25561.3
519.000                    24832.3
520.000                    24478.9
521.000                    24401.2
522.000                    23645.3
523.000                    23652.2
524.000                    23601.3
525.000                    23561.3
526.000                    24095.1
527.000                    24218.9
528.000                    24423.1
529.000                    24560.5
530.000                    24263.5
531.000                    25062.8
532.000                    25193.6
533.000                    25443.2
534.000                    25677.5
535.000                    25857.3
536.000                    26906.1
537.000                    27366
538.000                    27686.5
539.000                    27222.7
540.000                    26781.6
541.000                    26509.7
542.000                    26087
543.000                    26317.4
544.000                    26393.7
545.000                    26704.6
546.000                    27270.6
547.000                    29145.4
548.000                    31046.8
549.000                    33509
550.000                    33282.7
551.000                    30620.9
552.000                    28380.2
553.000                    26747.4
554.000                    25763.4
555.000                    25444.4
556.000                    25179.5
557.000                    25368.7
558.000                    25298.6
559.000                    25074.2
560.000                    24744.3
561.000                    23992.4
562.000                    24178.7
563.000                    23923.8
564.000                    24088.6
565.000                    23925.8
566.000                    24000.6
567.000                    24108.2
568.000                    24444.5
569.000                    24591.1
570.000                    24267.2
571.000                    24014
572.000                    23775.5
573.000                    23942.9
574.000                    24160.1
575.000                    24277
576.000                    24075.7
577.000                    24177.4
578.000                    24159.2
579.000                    24230.5
580.000                    24090.6
581.000                    24052.1
582.000                    24266.3
583.000                    25192.1
584.000                    26758.8
585.000                    29865.8
586.000                    34991.8
587.000                    38270.2
588.000                    36843.1
589.000                    31628.1
590.000                    27244.6
591.000                    24685.4
592.000                    23965.1
593.000                    23102.2
594.000                    23005
595.000                    22893.5
596.000                    23435
597.000                    22937.1
598.000                    22628.9
599.000                    21965.5
600.000                    21546.4
601.000                    21526.1
602.000                    21406.8
603.000                    21252.1
604.000                    21029.7
605.000                    20985.6
606.000                    20998.4
607.000                    21029.5
608.000                    20842.6
609.000                    20515.9
610.000                    20209.3
611.000                    20451.8
612.000                    20263.8
613.000                    20416.6
614.000                    19777.9
615.000                    20015.1
616.000                    19363.1
617.000                    19597
618.000                    19630.3
619.000                    19533
620.000                    19793
621.000                    19845.1
622.000                    20013
623.000                    20083.8
624.000                    20105.1
625.000                    20484.9
626.000                    20581.2
627.000                    20735.3
628.000                    20953.5
629.000                    21163.4
630.000                    21316.9
631.000                    21237.6
632.000                    21216.8
633.000                    21196.5
634.000                    21079.8
635.000                    20868.4
636.000                    21071.5
637.000                    20901.6
638.000                    20510.5
639.000                    20682.6
640.000                    20881.5
641.000                    20549.4
642.000                    20621.2
643.000                    20401.8
644.000                    20543.6
645.000                    20411
646.000                    20446.1
647.000                    20592.8
648.000                    20344.6
649.000                    19989.5
650.000                    20161.7
651.000                    20280
652.000                    20608.2
653.000                    20139.8
654.000                    20232.9
655.000                    20099.4
656.000                    20280.6
657.000                    19951.9
658.000                    20251.4
659.000                    20144
660.000                    20298.6
661.000                    19769.2
662.000                    19639.7
663.000                    19667.9
664.000                    19967.7
665.000                    20150
666.000                    20318.8
667.000                    20413.7
668.000                    20429.2
669.000                    20553.8
670.000                    20521.8
671.000                    20751
672.000                    20974.6
673.000                    20618.7
674.000                    20796.7
675.000                    20760.5
676.000                    20601.5
677.000                    20700.8
678.000                    20685.6
679.000                    21206.3
680.000                    20803.4
681.000                    21135.2
682.000                    21103.2
683.000                    21139.3
684.000                    21359.1
685.000                    21080
686.000                    21197
687.000                    21341.3
688.000                    20989.9
689.000                    20776.8
690.000                    20696.2
691.000                    20644.1
692.000                    20579.8
693.000                    20639.1
694.000                    20734.4
695.000                    20609.4
696.000                    20606.9
697.000                    20620.2
698.000                    20653.7
699.000                    20825.6
700.000                    20838.7
701.000                    21148.2
702.000                    21176
703.000                    21232.2
704.000                    21215.4
705.000                    21546.9
706.000                    21678.3
707.000                    21352.8
708.000                    21351.2
709.000                    20978.1
710.000                    20570
711.000                    20430.9
712.000                    20194.4
713.000                    20114.6
714.000                    20139.6
715.000                    20047.1
716.000                    20151.4
717.000                    19739.7
718.000                    19736.9
719.000                    19959.2
720.000                    21409
721.000                    25056.5
722.000                    32433
723.000                    38486.8
724.000                    32075.9
725.000                    22507
726.000                    19336.6
727.000                    19156.4
728.000                    18918.2
729.000                    18863.9
730.000                    19176.7
731.000                    19996.8
732.000                    20015.6
733.000                    19745.6
734.000                    19502.7
735.000                    18937.7
736.000                    18471.8
737.000                    18651.7
738.000                    18517.6
739.000                    18320.2
740.000                    18575.1
741.000                    18950.4
742.000                    18691.7
743.000                    18841
744.000                    18852.6
745.000                    18525.3
746.000                    18571.1
747.000                    18729.6
748.000                    18614.6
749.000                    18488.8
750.000                    18360.7
751.000                    18471.1
752.000                    18737.7
753.000                    18546.1
754.000                    18497.8
755.000                    18335.2
756.000                    19037.4
757.000                    20783.3
758.000                    24121.7
759.000                    24170.1
760.000                    20539.7
761.000                    18644.7
762.000                    18251.1
763.000                    18207.5
764.000                    18501.4
765.000                    20089.8
766.000                    24314.4
767.000                    27333.8
768.000                    23438.3
769.000                    19246.8
770.000                    18018.5
771.000                    17711.6
772.000                    17702.4
773.000                    17738.3
774.000                    18043.4
775.000                    18635.5
776.000                    18699.2
777.000                    18674.1
778.000                    18295.4
779.000                    17996.8
780.000                    18299.5
781.000                    18579.8
782.000                    18737.1
783.000                    18779.5
784.000                    19066.1
785.000                    19133.1
786.000                    18885.6
787.000                    18670.6
788.000                    18875.2
789.000                    19130.2
790.000                    19084.8
791.000                    18951.4
792.000                    18671.1
793.000                    18521.6
794.000                    17965
795.000                    17473.9
796.000                    17115.2
797.000                    17248.4
798.000                    18409.5
799.000                    25540.3
800.000                    48405.9
801.000                    68311
802.000                    47812.6
803.000                    20469.8
804.000                    13859.8
805.000                    13797.4
806.000                    17974
807.000                    38507.1
808.000                    78244
809.000                    85165
810.000                    41749.1
811.000                    17310.6
812.000                    11614
813.000                     8984.2
814.000                     7941.1
815.000                     7864.8
816.000                     9955.7
817.000                    13080.9
818.000                    13023.8
819.000                    11156.8
820.000                     8236
821.000                     6191.1
822.000                     5369.3
823.000                     5135.2
824.000                     4985.4
825.000                     5084.2
826.000                     5279.9
827.000                     5232.3
828.000                     4882.4
829.000                     5038.6
830.000                     4830.4
831.000                     4667
832.000                     4587.8
833.000                     4467.6
834.000                     4534.3
835.000                     4524.9
836.000                     4538.3
837.000                     4646.1
838.000                     4460.7
839.000                     4360.3
840.000                     4427.8
841.000                     4404.3
842.000                     4313.7
843.000                     4408.2
844.000                     4383.3
845.000                     4263.8
846.000                     4216
847.000                     4109.8
848.000                     4089.7
849.000                     4214.2
850.000                     4130.6
851.000                     4148
852.000                     3979
853.000                     3923.1
854.000                     4060.3
855.000                     3922.2
856.000                     4040.3
857.000                     4042
858.000                     3872.2
859.000                     3693.9
860.000                     3666.1
861.000                     3667.1
862.000                     3683.3
863.000                     3692.8
864.000                     3679.7
865.000                     3668.9
866.000                     3638.5
867.000                     3741.1
868.000                     3659.1
869.000                     3618.4
870.000                     3670.3
871.000                     3648.3
872.000                     3695.9
873.000                     3797
874.000                     3676.4
875.000                     3790
876.000                     3682.4
877.000                     3701
878.000                     3705.6
879.000                     3655.9
880.000                     3669.8
881.000                     3665.7
882.000                     3612.3
883.000                     3569.8
884.000                     3637.1
885.000                     3563.8
886.000                     3615.1
887.000                     3558.9
888.000                     3673.2
889.000                     3520.2
890.000                     3582.5
891.000                     3565.8
892.000                     3636.7
893.000                     3609.3
894.000                     3581.4
895.000                     3392.5
896.000                     3459.7
897.000                     3531.1
898.000                     3520.6
899.000                     3530
900.000                     3615.9
901.000                     3557.7
902.000                     3540.4
903.000                     3503
904.000                     3475.2
905.000                     3546.8
906.000                     3515.2
907.000                     3530.4
908.000                     3592.4
909.000                     3565.9
910.000                     3504.4
911.000                     3495.7
912.000                     3662.2
913.000                     3493.8
914.000                     3587.1
915.000                     3623.7
916.000                     3560.2
917.000                     3538
918.000                     3499.9
919.000                     3523.3
920.000                     3549.6
921.000                     3475.3
922.000                     3531
923.000                     3572.1
924.000                     3568.7
925.000                     3437.3
926.000                     3563.2
927.000                     3563.5
928.000                     3546.6
929.000                     3557.7
930.000                     3421
931.000                     3453.8
932.000                     3515
933.000                     3451.2
934.000                     3567.9
935.000                     3450.6
936.000                     3502.3
937.000                     3397.6
938.000                     3458.2
939.000                     3467.1
940.000                     3405.6
941.000                     3534.4
942.000                     3437.5
943.000                     3440.9
944.000                     3383.6
945.000                     3363.4
946.000                     3384.6
947.000                     3375.8
948.000                     3364.8
949.000                     3371.8
950.000                     3323.3
951.000                     3288.2
952.000                     3379.8
953.000                     3411.9
954.000                     3362.6
955.000                     3307.3
956.000                     3369.9
957.000                     3469.1
958.000                     3355
959.000                     3314.2
960.000                     3329.7
961.000                     3288.4
962.000                     3269.4
963.000                     3326.5
964.000                     3486.6
965.000                     3512.6
966.000                     3490
967.000                     3757.9
968.000                     4077.4
969.000                     4025.4
970.000                     3583.8
971.000                     3278.8
972.000                     3357.5
973.000                     3219.5
974.000                     3320.2
975.000                     3234
976.000                     3238.4
977.000                     3259.1
978.000                     3278
979.000                     3258.8
980.000                     3272.2
981.000                     3121
982.000                     3220.5
983.000                     3281.6
984.000                     3270.1
985.000                     3123.2
986.000                     3092.6
987.000                     3319.8
988.000                     3248.5
989.000                     3250.6
990.000                     3322.4
991.000                     3225
992.000                     3244.4
993.000                     3235.3
994.000                     3186.5
995.000                     3146.4
996.000                     3149.3
997.000                     3191.7
998.000                     3188.8
999.000                     3200.4
1000.000                    3309.3
1001.000                    3249.6
1002.000                    3239.1
1003.000                    3187
1004.000                    3122.9
1005.000                    3167.2
1006.000                    3204.6
1007.000                    3144.8
1008.000                    3192.5
1009.000                    3271.7
1010.000                    3329.6
1011.000                    3420.9
1012.000                    3272.5
1013.000                    3200.4
1014.000                    3180.6
1015.000                    3176.2
1016.000                    3189
1017.000                    3169.3
1018.000                    3233
1019.000                    3244.7
1020.000                    3185.7
1021.000                    3213.1
1022.000                    3204.6
1023.000                    3179.4
1024.000                    3108.3
1025.000                    3141.5
1026.000                    3192.4
1027.000                    3144.4
1028.000                    3202.9
1029.000                    3089.9
1030.000                    3159.3
1031.000                    3095.9
1032.000                    3110.2
1033.000                    3302.9
1034.000                    3411.6
1035.000                    3387.4
1036.000                    3131.2
1037.000                    3137.5
1038.000                    3191.6
1039.000                    3156.3
1040.000                    3290.8
1041.000                    3373
1042.000                    3471.7
1043.000                    3302
1044.000                    3130
1045.000                    3168.9
1046.000                    3089.6
1047.000                    3229.8
1048.000                    3058.2
1049.000                    3053.4
1050.000                    3155.9
1051.000                    3190.9
1052.000                    3181.8
1053.000                    3163.6
1054.000                    3227.9
1055.000                    3207.1
1056.000                    3144.4
1057.000                    3169.2
1058.000                    3062.7
1059.000                    3105.5
1060.000                    3060.1
1061.000                    3095
1062.000                    3145.1
1063.000                    3151.7
1064.000                    3100.6
1065.000                    3172.7
1066.000                    3026.7
1067.000                    3091.2
1068.000                    3150.6
1069.000                    3172
1070.000                    3125.8
1071.000                    3166.8
1072.000                    3179.2
1073.000                    3174.9
1074.000                    3127.2
1075.000                    3009.1
1076.000                    3122.6
1077.000                    3081.4
1078.000                    3140.5
1079.000                    3113.6
1080.000                    3149.9
1081.000                    3167.5
1082.000                    3095.2
1083.000                    3164.9
1084.000                    3100.9
1085.000                    3185
1086.000                    3144.1
1087.000                    3075.7
1088.000                    3118.4
1089.000                    3175.6
1090.000                    3145.5
1091.000                    3159.2
1092.000                    3180.9
1093.000                    3252.8
1094.000                    3198.5
1095.000                    3231.4
1096.000                    3152.3
1097.000                    3211.8
1098.000                    3158.5
1099.000                    3338.8
1100.000                    3384.6
1101.000                    3291.8
1102.000                    3202.5
1103.000                    3251.4
1104.000                    3262.2
1105.000                    3253.1
1106.000                    3269.1
1107.000                    3293.5
1108.000                    3200.8
1109.000                    3250
1110.000                    3258.6
1111.000                    3265.9
1112.000                    3259.9
1113.000                    3297.1
1114.000                    3372.5
1115.000                    3293.2
1116.000                    3232.3
1117.000                    3270.4
1118.000                    3219.7
1119.000                    3233.9
1120.000                    3225.4
1121.000                    3173.6
1122.000                    3271.7
1123.000                    3234.4
1124.000                    3291.4
1125.000                    3358.8
1126.000                    3308.5
1127.000                    3585.7
1128.000                    3739.6
1129.000                    3793
1130.000                    3890.1
1131.000                    3798.9
1132.000                    3642.9
1133.000                    3435.7
1134.000                    3309.2
1135.000                    3366.6
1136.000                    3182.5
1137.000                    3237.4
1138.000                    3127.5
1139.000                    3217.8
1140.000                    3317
1141.000                    3290.1
1142.000                    3238.3
1143.000                    3228
1144.000                    3123.3
1145.000                    3270.2
1146.000                    3203
1147.000                    3076.8
1148.000                    3252
1149.000                    3300.3
1150.000                    3350.6
1151.000                    3429
1152.000                    3418
1153.000                    3368.7
1154.000                    3358.7
1155.000                    3354.4
1156.000                    3384.9
1157.000                    3329.3
1158.000                    3337.7
1159.000                    3498.1
1160.000                    3514.3
1161.000                    3601.8
1162.000                    3563
1163.000                    3631.9
1164.000                    3675.9
1165.000                    3682.6
1166.000                    3736.6
1167.000                    3829.3
1168.000                    3840.1
1169.000                    3880.6
1170.000                    3922.3
1171.000                    3889.7
1172.000                    4066
1173.000                    4007.1
1174.000                    4065.5
1175.000                    4026.3
1176.000                    3855
1177.000                    3630.8
1178.000                    3416
1179.000                    3259.7
1180.000                    3209.1
1181.000                    3132.6
1182.000                    2963.3
1183.000                    2879.8
1184.000                    2693.4
1185.000                    2699.5
1186.000                    2493
1187.000                    2483.8
1188.000                    2377.4
1189.000                    2356.5
1190.000                    2319
1191.000                    2301.6
1192.000                    2251.2
1193.000                    2263.1
1194.000                    2280.9
1195.000                    2234.8
1196.000                    2280.2
1197.000                    2236.8
1198.000                    2248.6
1199.000                    2225.1
1200.000                    2282.7
1201.000                    2230
1202.000                    2219.5
1203.000                    2242.9
1204.000                    2181.5
1205.000                    2218.8
1206.000                    2290.2
1207.000                    2319.6
1208.000                    2329.3
1209.000                    2324.5
1210.000                    2342.8
1211.000                    2301.1
1212.000                    2390.4
1213.000                    2458.6
1214.000                    2396.3
1215.000                    2444.4
1216.000                    2406.3
1217.000                    2371.5
1218.000                    2374.8
1219.000                    2398.7
1220.000                    2374.6
1221.000                    2328.6
1222.000                    2394.9
1223.000                    2280.5
1224.000                    2354.4
1225.000                    2421.3
1226.000                    2858.1
1227.000                    3186.9
1228.000                    3096.6
1229.000                    2650
1230.000                    2491.8
1231.000                    2530.1
1232.000                    2688.1
1233.000                    3792.2
1234.000                    7440.5
1235.000                   11137.5
1236.000                    8868
1237.000                    4329.8
1238.000                    2073.8
1239.000                    1572.2
1240.000                    1480.2
1241.000                    1459.4
1242.000                    1638.1
1243.000                    1929.9
1244.000                    2283.2
1245.000                    2195.7
1246.000                    2005.6
1247.000                    1647
1248.000                    1493.3
1249.000                    1430.1
1250.000                    1287.7
1251.000                    1127.2
1252.000                    1083.3
1253.000                     991.8000
1254.000                     972.5000
1255.000                    1052.6
1256.000                    1004.4
1257.000                    1006.2
1258.000                     964.6000
1259.000                     894.9000
1260.000                     899.8000