File: ITO_Radiator/XPS--10_1-In3d.txt
# Transition                      In 3d
# Notes
# Creation Comment
# Energy Mode                     KE
# Start Energy in eV              793.6
# End Energy in eV                833.6
# Energy Step in eV               0.1
# Number Of Sweeps                2
# Dwell Time per Sweep in s       0.3
# Analyser Mode                   CAE
# Pass Energy in eV/Retard Ratio  25
# Magnification                   high
# Divide Voltages By 10           off
# Excitation Source               Mg Ka 1253.6 eV normal
# Excitation Energy in eV         1253.6
# Analyser Workfunction in eV     4.5
# Entrance Slit                   6 x 12 mm
# Exit Slit                       5 x 11 mm
#
#
# Kinetic Energy in eV         Counts
# --------------------         ------
793.600                    12914.8
793.700                    13020.5
793.800                    12906.5
793.900                    12971
794.000                    12930.2
794.100                    13059
794.200                    12902
794.300                    12792.5
794.400                    12741.5
794.500                    12573.5
794.600                    12689.8
794.700                    12729
794.800                    12812
794.900                    12703.5
795.000                    12597
795.100                    12604
795.200                    12533
795.300                    12761
795.400                    12512.5
795.500                    12490.2
795.600                    12569.5
795.700                    12615.2
795.800                    12476.8
795.900                    12398.5
796.000                    12504.5
796.100                    12473.8
796.200                    12426
796.300                    12448.2
796.400                    12368.8
796.500                    12450.8
796.600                    12478.5
796.700                    12502
796.800                    12432.5
796.900                    12522
797.000                    12534
797.100                    12493.5
797.200                    12654
797.300                    12644
797.400                    12658
797.500                    12508.5
797.600                    12576.2
797.700                    12714.5
797.800                    12657.8
797.900                    12871.8
798.000                    12878.5
798.100                    12763
798.200                    12859.5
798.300                    12873.8
798.400                    13039.2
798.500                    13436
798.600                    13561.5
798.700                    13661.5
798.800                    13998
798.900                    14441.2
799.000                    15020.2
799.100                    15725.5
799.200                    16277.8
799.300                    17142
799.400                    18106
799.500                    19444.8
799.600                    21110.8
799.700                    22894.5
799.800                    25036.5
799.900                    27474.8
800.000                    29777.2
800.100                    32933
800.200                    36707.8
800.300                    39942.8
800.400                    43901
800.500                    47245
800.600                    50186.8
800.700                    53783
800.800                    56693.8
800.900                    59011.5
801.000                    60437
801.100                    60545
801.200                    60125.8
801.300                    58439.5
801.400                    56140
801.500                    52955.2
801.600                    49842.2
801.700                    45970.8
801.800                    41761.2
801.900                    37504.8
802.000                    33320.8
802.100                    29556.5
802.200                    26063
802.300                    23468.2
802.400                    20687
802.500                    18556.5
802.600                    16964
802.700                    15547.5
802.800                    14578.2
802.900                    13537.5
803.000                    12802.2
803.100                    12179.8
803.200                    11637.5
803.300                    11454
803.400                    11079.2
803.500                    10879
803.600                    10539
803.700                    10399
803.800                    10291.5
803.900                    10038.8
804.000                     9797.75
804.100                     9689.75
804.200                     9812.75
804.300                     9595.5
804.400                     9457.75
804.500                     9497.75
804.600                     9323.75
804.700                     9614
804.800                     9480
804.900                     9497
805.000                     9433.5
805.100                     9403.75
805.200                     9493.5
805.300                     9620.75
805.400                     9593.25
805.500                     9662.25
805.600                     9810.75
805.700                    10003.5
805.800                    10128
805.900                    10450
806.000                    10706.8
806.100                    11148.2
806.200                    11346.8
806.300                    11783.8
806.400                    12478.8
806.500                    13023.2
806.600                    13775.5
806.700                    14776.2
806.800                    15940
806.900                    17253.2
807.000                    19022.5
807.100                    21162.5
807.200                    23748
807.300                    26535.8
807.400                    29901.8
807.500                    33703.8
807.600                    37583.5
807.700                    42197.5
807.800                    47405
807.900                    52285.8
808.000                    57832.8
808.100                    63117.2
808.200                    67981
808.300                    72691.8
808.400                    76338.2
808.500                    78828.8
808.600                    80378
808.700                    80751.5
808.800                    80219.2
808.900                    77655.8
809.000                    74443
809.100                    69711.2
809.200                    65018.2
809.300                    59247
809.400                    54043.5
809.500                    47732.2
809.600                    42256.5
809.700                    37197
809.800                    32284
809.900                    28562.5
810.000                    25056.5
810.100                    22303.2
810.200                    19851.8
810.300                    17998.2
810.400                    16366
810.500                    15025.5
810.600                    14033.8
810.700                    13342.8
810.800                    12492.2
810.900                    11999.2
811.000                    11582
811.100                    11299
811.200                    11025.8
811.300                    10730
811.400                    10426.8
811.500                     9992.5
811.600                     9691.25
811.700                     9565
811.800                     9076.75
811.900                     9020.25
812.000                     8638.25
812.100                     8299.75
812.200                     7934.75
812.300                     7631.25
812.400                     7382.25
812.500                     7170.75
812.600                     6970.25
812.700                     6781.75
812.800                     6607.25
812.900                     6476
813.000                     6368.75
813.100                     6271.75
813.200                     6372.25
813.300                     6139.25
813.400                     6064.25
813.500                     5932.5
813.600                     6081.5
813.700                     5990
813.800                     5871.75
813.900                     5769.25
814.000                     5770
814.100                     5813.75
814.200                     5650
814.300                     5638
814.400                     5563
814.500                     5656.25
814.600                     5448.5
814.700                     5385.25
814.800                     5332.25
814.900                     5332
815.000                     5438
815.100                     5287.5
815.200                     5397.5
815.300                     5471.5
815.400                     5516.75
815.500                     5590.25
815.600                     5715.25
815.700                     6015.25
815.800                     6180.5
815.900                     6320.5
816.000                     6556.25
816.100                     6875.25
816.200                     7437.25
816.300                     7738.25
816.400                     8067.75
816.500                     8308.25
816.600                     8778.25
816.700                     9208.5
816.800                     9518.5
816.900                     9883.75
817.000                    10106
817.100                    10090.8
817.200                    10136.5
817.300                     9966.25
817.400                     9989
817.500                    10044.8
817.600                     9923
817.700                     9734.25
817.800                     9553.75
817.900                     9299.5
818.000                     9153.25
818.100                     9074.5
818.200                     9023.75
818.300                     9033
818.400                     9017.5
818.500                     8870.5
818.600                     8828.25
818.700                     8859.25
818.800                     8878
818.900                     8712.75
819.000                     8586
819.100                     8600.25
819.200                     8420.25
819.300                     8186.5
819.400                     8022.75
819.500                     7751
819.600                     7230.5
819.700                     6820.5
819.800                     6652.75
819.900                     6287.25
820.000                     6080.25
820.100                     5751
820.200                     5495.5
820.300                     5224
820.400                     5086.5
820.500                     5002.75
820.600                     4733
820.700                     4685.5
820.800                     4431.5
820.900                     4517.75
821.000                     4399.25
821.100                     4328
821.200                     4316.5
821.300                     4373.25
821.400                     4194.5
821.500                     4198.25
821.600                     4201.75
821.700                     4133.5
821.800                     4160.5
821.900                     4100.75
822.000                     4073
822.100                     4027.25
822.200                     4054.25
822.300                     3994.25
822.400                     3950.5
822.500                     3927
822.600                     3791.75
822.700                     3742.25
822.800                     3846.75
822.900                     3803.75
823.000                     3784
823.100                     3832.25
823.200                     3798.25
823.300                     3778.75
823.400                     3710.75
823.500                     3801
823.600                     3688.75
823.700                     3736.25
823.800                     3733.75
823.900                     3697.5
824.000                     3755.75
824.100                     3757.25
824.200                     3747.5
824.300                     3678.25
824.400                     3726.75
824.500                     3804.25
824.600                     3730
824.700                     3807.75
824.800                     3806
824.900                     3757.5
825.000                     3817.25
825.100                     3890
825.200                     3872.25
825.300                     3896.5
825.400                     3906
825.500                     3893.25
825.600                     3951.5
825.700                     3955.5
825.800                     3850.75
825.900                     3918
826.000                     3920
826.100                     3910
826.200                     4053
826.300                     3981
826.400                     3957.75
826.500                     3968
826.600                     3944.75
826.700                     3955.5
826.800                     3978.25
826.900                     3862.5
827.000                     3965.25
827.100                     3870.75
827.200                     3849
827.300                     3771
827.400                     3789
827.500                     3893
827.600                     3835.75
827.700                     3855.5
827.800                     3853
827.900                     3941.5
828.000                     3872.25
828.100                     3836.25
828.200                     3790
828.300                     3757
828.400                     3783.75
828.500                     3846.5
828.600                     3748.75
828.700                     3779.75
828.800                     3843.25
828.900                     3837.75
829.000                     3716.5
829.100                     3758.75
829.200                     3832.75
829.300                     3751
829.400                     3780.75
829.500                     3833.5
829.600                     3762.5
829.700                     3772.5
829.800                     3719
829.900                     3780
830.000                     3713.75
830.100                     3684
830.200                     3728
830.300                     3661.75
830.400                     3663.5
830.500                     3673.75
830.600                     3638.25
830.700                     3577.5
830.800                     3554.25
830.900                     3588
831.000                     3525.75
831.100                     3497.5
831.200                     3518.5
831.300                     3584.5
831.400                     3591.5
831.500                     3504.5
831.600                     3469
831.700                     3399.25
831.800                     3385.5
831.900                     3413.75
832.000                     3455.75
832.100                     3459.25
832.200                     3454
832.300                     3512.5
832.400                     3429.75
832.500                     3411.25
832.600                     3467.75
832.700                     3447.25
832.800                     3366.75
832.900                     3342.75
833.000                     3395.25
833.100                     3380.75
833.200                     3379
833.300                     3486.5
833.400                     3380.75
833.500                     3418.75
833.600                     3431.25