File: ITO_Radiator/XPS--2_1-wide.txt
# Transition                      wide
# Notes
# Creation Comment
# Energy Mode                     KE
# Start Energy in eV              150
# End Energy in eV                1260
# Energy Step in eV               0.5
# Number Of Sweeps                1
# Dwell Time per Sweep in s       0.2
# Analyser Mode                   CAE
# Pass Energy in eV/Retard Ratio  50
# Magnification                   high
# Divide Voltages By 10           off
# Excitation Source               Mg Ka 1253.6 eV normal
# Excitation Energy in eV         1253.6
# Analyser Workfunction in eV     4.5
# Entrance Slit                   6 x 12 mm
# Exit Slit                       5 x 11 mm
#
#
# Kinetic Energy in eV         Counts
# --------------------         ------
150.000                    56133.5
151.000                    55897.4
152.000                    55685.7
153.000                    55940.2
154.000                    55694.9
155.000                    55578.2
156.000                    55228.4
157.000                    55118.7
158.000                    54734.1
159.000                    54956.7
160.000                    55297.7
161.000                    55051.1
162.000                    55022.1
163.000                    54689.9
164.000                    54456.9
165.000                    54651.6
166.000                    54316.3
167.000                    54066.6
168.000                    54085.5
169.000                    54030.2
170.000                    53768.7
171.000                    54006
172.000                    53559.8
173.000                    53122.5
174.000                    53599.4
175.000                    53303.6
176.000                    53164.5
177.000                    53250.3
178.000                    53419.2
179.000                    53017.5
180.000                    53001.5
181.000                    52541.8
182.000                    52804.1
183.000                    52580
184.000                    52451.9
185.000                    52138.9
186.000                    52177.1
187.000                    52434.6
188.000                    52296.2
189.000                    52123.5
190.000                    52831
191.000                    52358
192.000                    51926.3
193.000                    52037.8
194.000                    51518.7
195.000                    51522.1
196.000                    51570.8
197.000                    51377.5
198.000                    51315.7
199.000                    51457.3
200.000                    50837.6
201.000                    51268.1
202.000                    50946.5
203.000                    50742.7
204.000                    50864.2
205.000                    50834
206.000                    50986.2
207.000                    50597.1
208.000                    50647.6
209.000                    50352
210.000                    50479.8
211.000                    50750.5
212.000                    50372.9
213.000                    50326
214.000                    50225
215.000                    50003.4
216.000                    50040.8
217.000                    49923
218.000                    49861.8
219.000                    49901.9
220.000                    50082.2
221.000                    49816.9
222.000                    49865
223.000                    49575.8
224.000                    49734.5
225.000                    49686.1
226.000                    49659.9
227.000                    49631.1
228.000                    49037.2
229.000                    49635
230.000                    49120.5
231.000                    48855.8
232.000                    49149.7
233.000                    48729.4
234.000                    49113.7
235.000                    49086.4
236.000                    49175.6
237.000                    49348
238.000                    49629.2
239.000                    49706.7
240.000                    50200.3
241.000                    49645.1
242.000                    48929.5
243.000                    49025.4
244.000                    48625.1
245.000                    48520.5
246.000                    48947.2
247.000                    48545.6
248.000                    48673.9
249.000                    48480.6
250.000                    48464.9
251.000                    48474
252.000                    48364.5
253.000                    48915.9
254.000                    48723.9
255.000                    48976.8
256.000                    49392.7
257.000                    48880.8
258.000                    49390.3
259.000                    48924.7
260.000                    48756.2
261.000                    48890.1
262.000                    48748.5
263.000                    48611.2
264.000                    48207.1
265.000                    47494.4
266.000                    47743.5
267.000                    47159.4
268.000                    46867
269.000                    46390.2
270.000                    46298.3
271.000                    45795
272.000                    45514.3
273.000                    45048.2
274.000                    44995.7
275.000                    44497.9
276.000                    44673.4
277.000                    44968.6
278.000                    44440.3
279.000                    44241.2
280.000                    44269.6
281.000                    44113.3
282.000                    44430.1
283.000                    44103
284.000                    43825.1
285.000                    44002.2
286.000                    43826
287.000                    43975.2
288.000                    43569.7
289.000                    43735.8
290.000                    43932.5
291.000                    43837.6
292.000                    43972
293.000                    43840
294.000                    43780.8
295.000                    43726.8
296.000                    43790
297.000                    43684.7
298.000                    43144.4
299.000                    43284.9
300.000                    42781.6
301.000                    42608
302.000                    42962.7
303.000                    42416.8
304.000                    42162.4
305.000                    41706.3
306.000                    41746.2
307.000                    42167.8
308.000                    41980.2
309.000                    41904.1
310.000                    41921.1
311.000                    41759.7
312.000                    42027.7
313.000                    41491.8
314.000                    41306.1
315.000                    41885.5
316.000                    41431
317.000                    41249.5
318.000                    41235.4
319.000                    41069.9
320.000                    41314
321.000                    41170.4
322.000                    40878.9
323.000                    40766
324.000                    41038.4
325.000                    40651.9
326.000                    40729.8
327.000                    40751.9
328.000                    40680.2
329.000                    40409.7
330.000                    40364.1
331.000                    40587.6
332.000                    40040.2
333.000                    40308.3
334.000                    39778.3
335.000                    40105.9
336.000                    40064.4
337.000                    39519.5
338.000                    40018.7
339.000                    39450.3
340.000                    39536.7
341.000                    39178.1
342.000                    39249.4
343.000                    38838.8
344.000                    38519.9
345.000                    38169.8
346.000                    38052.7
347.000                    37992.3
348.000                    37766.1
349.000                    37675.6
350.000                    36928.3
351.000                    36790.1
352.000                    37064.4
353.000                    36675.5
354.000                    36588.7
355.000                    36320.7
356.000                    36385.7
357.000                    36219.9
358.000                    36115.5
359.000                    35848.2
360.000                    36024.9
361.000                    36012.7
362.000                    35723.5
363.000                    35781.6
364.000                    35807.9
365.000                    35578.2
366.000                    35798.9
367.000                    35764.3
368.000                    35952.5
369.000                    36116.5
370.000                    35531.8
371.000                    35533.9
372.000                    35755.1
373.000                    36015.4
374.000                    35804.2
375.000                    35554.7
376.000                    35380.1
377.000                    35512.6
378.000                    35538.2
379.000                    35637.2
380.000                    35776.1
381.000                    35644.9
382.000                    35550.4
383.000                    35325.3
384.000                    34833.7
385.000                    35152.1
386.000                    34635.8
387.000                    34368.2
388.000                    34203.9
389.000                    33990.7
390.000                    33611.5
391.000                    33562.9
392.000                    33188.7
393.000                    33581
394.000                    33528.4
395.000                    33884.3
396.000                    34688.7
397.000                    36383.3
398.000                    38279
399.000                    39517.7
400.000                    39924.2
401.000                    38662.8
402.000                    36709.8
403.000                    34886.8
404.000                    34467.1
405.000                    34909.1
406.000                    35333.7
407.000                    34314.3
408.000                    32870.9
409.000                    31284
410.000                    29857
411.000                    29053.2
412.000                    27994.8
413.000                    27565.2
414.000                    27752.8
415.000                    27475.1
416.000                    27429.1
417.000                    27495.3
418.000                    27379.4
419.000                    27850
420.000                    27341.2
421.000                    27571.8
422.000                    27863
423.000                    28246.2
424.000                    28320.4
425.000                    28321.7
426.000                    28223.2
427.000                    27977.9
428.000                    27297.9
429.000                    26979.7
430.000                    26956.7
431.000                    26759.4
432.000                    27075.4
433.000                    26541.5
434.000                    26255.5
435.000                    25973.1
436.000                    25544.9
437.000                    25665.2
438.000                    25461.2
439.000                    25472.3
440.000                    25517.6
441.000                    25613.6
442.000                    25264.7
443.000                    25474.1
444.000                    25485.2
445.000                    25609.2
446.000                    25376.9
447.000                    25312.7
448.000                    25594.3
449.000                    25725.2
450.000                    25432.7
451.000                    25437.7
452.000                    25604.7
453.000                    25481.1
454.000                    25467.8
455.000                    25716.1
456.000                    25494.8
457.000                    25162.4
458.000                    25360.1
459.000                    25671.8
460.000                    25627.2
461.000                    25414.4
462.000                    25222.6
463.000                    25221.2
464.000                    25324.7
465.000                    25249.1
466.000                    25597.8
467.000                    25307.5
468.000                    25436.9
469.000                    25242.1
470.000                    25433
471.000                    25381.2
472.000                    25669.9
473.000                    25303.7
474.000                    25550.7
475.000                    25553.9
476.000                    25444.7
477.000                    25337.7
478.000                    25151.4
479.000                    25153.4
480.000                    25224.8
481.000                    25020.4
482.000                    25241.8
483.000                    25166.2
484.000                    25228.8
485.000                    25415.4
486.000                    25445.8
487.000                    25643.5
488.000                    25321.9
489.000                    25618.7
490.000                    25702.2
491.000                    25575.3
492.000                    25551.5
493.000                    25403.2
494.000                    25313.5
495.000                    25102.8
496.000                    24788
497.000                    24685.4
498.000                    24516
499.000                    24066.8
500.000                    23814.6
501.000                    24029.8
502.000                    23650.2
503.000                    24006.7
504.000                    23880.4
505.000                    24235.4
506.000                    24284.8
507.000                    24547.8
508.000                    24690
509.000                    25354.6
510.000                    25881.7
511.000                    26345.1
512.000                    26347.1
513.000                    25556.6
514.000                    24610.9
515.000                    23828.4
516.000                    23537.4
517.000                    22672
518.000                    22622.6
519.000                    22342
520.000                    21881.2
521.000                    21806.5
522.000                    21303.4
523.000                    21118.4
524.000                    21041.2
525.000                    20990
526.000                    20904.7
527.000                    20880.7
528.000                    21115.1
529.000                    21165.4
530.000                    20713.2
531.000                    20489
532.000                    20813.1
533.000                    21061.6
534.000                    21024.9
535.000                    20980.5
536.000                    20984.8
537.000                    21201.4
538.000                    21032.3
539.000                    20618.6
540.000                    20619.9
541.000                    20224.5
542.000                    20351.7
543.000                    20346
544.000                    20140.3
545.000                    20094.3
546.000                    20533.3
547.000                    21274.3
548.000                    22197.2
549.000                    22717
550.000                    22685
551.000                    21615.2
552.000                    20585.3
553.000                    20025.6
554.000                    19809.5
555.000                    19679.6
556.000                    19704.5
557.000                    19803
558.000                    20038.7
559.000                    20048
560.000                    20092.6
561.000                    19931.8
562.000                    19767.9
563.000                    19855.2
564.000                    19957.4
565.000                    19362.8
566.000                    19273.4
567.000                    19182.6
568.000                    19430.3
569.000                    19403.8
570.000                    19119.6
571.000                    19077.3
572.000                    18724.1
573.000                    18685.7
574.000                    18501.6
575.000                    18244.1
576.000                    18152.9
577.000                    18290.2
578.000                    17871.2
579.000                    17824.1
580.000                    17630.9
581.000                    17796.9
582.000                    17679.3
583.000                    18331.7
584.000                    18993.1
585.000                    20213.4
586.000                    22158.3
587.000                    23854.4
588.000                    22780.9
589.000                    20730.3
590.000                    19054.2
591.000                    18100.5
592.000                    17635.1
593.000                    17438.6
594.000                    17361.7
595.000                    17299.9
596.000                    17338.4
597.000                    17098.5
598.000                    17043.3
599.000                    16631.9
600.000                    16429.4
601.000                    16222.6
602.000                    16198.9
603.000                    16043.7
604.000                    16272.6
605.000                    16038.4
606.000                    16250.3
607.000                    16063.9
608.000                    16009.1
609.000                    16045.1
610.000                    15915.7
611.000                    15834.2
612.000                    15822.9
613.000                    15778.6
614.000                    15877.5
615.000                    15883.2
616.000                    16014
617.000                    15840
618.000                    15915.1
619.000                    15951
620.000                    15999.7
621.000                    15753.9
622.000                    15973.9
623.000                    15893.3
624.000                    16056.7
625.000                    15678.5
626.000                    15993.1
627.000                    15988.1
628.000                    15805.7
629.000                    15860.6
630.000                    15715.4
631.000                    15855.1
632.000                    15715.5
633.000                    15808.2
634.000                    15991.8
635.000                    15698.7
636.000                    15633.8
637.000                    16044.3
638.000                    15574.4
639.000                    15903.6
640.000                    15705
641.000                    15780
642.000                    15748
643.000                    15772.4
644.000                    15874.1
645.000                    15973.6
646.000                    16014.2
647.000                    15890.2
648.000                    16019.3
649.000                    15991.5
650.000                    16021.1
651.000                    15866.6
652.000                    15932
653.000                    15706.4
654.000                    15669.6
655.000                    15764.3
656.000                    15848.5
657.000                    15631.7
658.000                    15799.8
659.000                    15530.8
660.000                    15539.7
661.000                    15607.2
662.000                    15420.1
663.000                    15443.9
664.000                    15506.2
665.000                    15582.4
666.000                    15607.6
667.000                    15507.6
668.000                    15573.9
669.000                    15381.6
670.000                    15693.6
671.000                    15609.7
672.000                    15503.3
673.000                    15596.2
674.000                    15410.2
675.000                    15720.8
676.000                    15470.9
677.000                    15403
678.000                    15300.3
679.000                    15463.3
680.000                    15425.1
681.000                    15432.2
682.000                    15559.6
683.000                    15507.4
684.000                    15491.7
685.000                    15761.3
686.000                    15701.6
687.000                    15567.1
688.000                    15566.2
689.000                    15464.7
690.000                    15413.1
691.000                    15585.1
692.000                    15394
693.000                    15484.7
694.000                    15563.4
695.000                    15361.7
696.000                    15566.4
697.000                    15658.6
698.000                    15657.2
699.000                    15681.9
700.000                    15767.2
701.000                    15731.5
702.000                    15821.8
703.000                    15930.8
704.000                    15794.5
705.000                    15956.1
706.000                    15661
707.000                    15767.4
708.000                    15538.2
709.000                    15089.2
710.000                    14931.5
711.000                    14798.7
712.000                    14582.9
713.000                    14558.4
714.000                    14291.1
715.000                    14437.6
716.000                    14189.3
717.000                    14495
718.000                    14408.8
719.000                    14998.5
720.000                    16877.8
721.000                    20245.5
722.000                    22104.9
723.000                    22112.4
724.000                    18858.6
725.000                    15102.7
726.000                    13934.4
727.000                    13749.8
728.000                    13841.7
729.000                    13827.3
730.000                    14211.9
731.000                    14598.7
732.000                    14633.7
733.000                    14121.8
734.000                    13816.2
735.000                    13506.9
736.000                    13561.8
737.000                    13602.9
738.000                    13493.5
739.000                    13520.7
740.000                    13609.6
741.000                    13567.9
742.000                    13706.8
743.000                    13642.4
744.000                    13704.4
745.000                    13743.3
746.000                    13495.2
747.000                    13368.3
748.000                    13386.4
749.000                    13234
750.000                    13230.5
751.000                    13118.1
752.000                    13233.6
753.000                    13175
754.000                    13119.5
755.000                    13266.2
756.000                    13567.2
757.000                    14309.4
758.000                    15436.1
759.000                    15031.7
760.000                    13451.5
761.000                    12991
762.000                    12998.5
763.000                    12709.7
764.000                    13186.6
765.000                    14078.5
766.000                    15907.9
767.000                    16795.8
768.000                    14730.8
769.000                    13153.4
770.000                    12928.2
771.000                    12714.8
772.000                    12683.7
773.000                    12704.1
774.000                    12832.7
775.000                    13128.2
776.000                    13152.4
777.000                    13235.3
778.000                    13192.3
779.000                    13231.6
780.000                    13176.1
781.000                    13360.8
782.000                    13414.5
783.000                    13363.8
784.000                    13280.7
785.000                    13184.1
786.000                    13154.4
787.000                    13066.3
788.000                    12941.2
789.000                    12666.3
790.000                    12363.4
791.000                    12099
792.000                    11485.4
793.000                    10739.6
794.000                    10367.1
795.000                     9926
796.000                     9790.6
797.000                     9438
798.000                     9863.9
799.000                    13162
800.000                    22392
801.000                    28980.6
802.000                    20973.9
803.000                    10046.7
804.000                     7126.7
805.000                     7144.8
806.000                     9338.7
807.000                    18589.9
808.000                    34513.1
809.000                    35964.9
810.000                    19289.3
811.000                     8944.9
812.000                     6483.8
813.000                     5297.6
814.000                     4863.4
815.000                     5007.9
816.000                     5940.7
817.000                     6924.2
818.000                     7043.4
819.000                     6320.1
820.000                     5190.3
821.000                     4238.7
822.000                     3918.3
823.000                     3700.9
824.000                     3728
825.000                     3861.5
826.000                     3907.9
827.000                     3773
828.000                     3801.9
829.000                     3704.5
830.000                     3679.7
831.000                     3598.5
832.000                     3473.6
833.000                     3540.2
834.000                     3464.5
835.000                     3452.8
836.000                     3566.1
837.000                     3435.2
838.000                     3519
839.000                     3452.7
840.000                     3452.6
841.000                     3326.9
842.000                     3366.7
843.000                     3506.7
844.000                     3485.4
845.000                     3528.9
846.000                     3416.1
847.000                     3310.9
848.000                     3495.6
849.000                     3442.7
850.000                     3467.7
851.000                     3436.9
852.000                     3474.7
853.000                     3443.8
854.000                     3437.5
855.000                     3441.8
856.000                     3388.8
857.000                     3354
858.000                     3339
859.000                     3229.1
860.000                     3210.3
861.000                     3210.8
862.000                     3208.4
863.000                     3356.4
864.000                     3229.4
865.000                     3276
866.000                     3245.1
867.000                     3207.1
868.000                     3244.3
869.000                     3184.6
870.000                     3186.5
871.000                     3169.9
872.000                     3209.7
873.000                     3256.4
874.000                     3131.8
875.000                     3139.2
876.000                     3223.5
877.000                     3173.5
878.000                     3208.4
879.000                     3242.1
880.000                     3249.6
881.000                     3285.5
882.000                     3126
883.000                     3204.8
884.000                     3235.1
885.000                     3127.3
886.000                     3230.8
887.000                     3135.2
888.000                     3194.1
889.000                     3191.2
890.000                     3160
891.000                     3187.4
892.000                     3158.9
893.000                     3206.8
894.000                     3210.2
895.000                     3092.9
896.000                     3175.7
897.000                     3127.4
898.000                     3194.3
899.000                     3152.7
900.000                     3212
901.000                     3215.3
902.000                     3181.5
903.000                     3211.7
904.000                     3135.7
905.000                     3224.9
906.000                     3162.7
907.000                     3042.6
908.000                     3261
909.000                     3134
910.000                     3213.7
911.000                     3232.9
912.000                     3221.5
913.000                     3241.4
914.000                     3296.6
915.000                     3206.1
916.000                     3207
917.000                     3187.4
918.000                     3311.3
919.000                     3258.7
920.000                     3287.7
921.000                     3280.2
922.000                     3333.1
923.000                     3226.1
924.000                     3176.3
925.000                     3302.9
926.000                     3319.7
927.000                     3328.3
928.000                     3228.3
929.000                     3278.9
930.000                     3299.4
931.000                     3301.8
932.000                     3361.2
933.000                     3332.4
934.000                     3293.1
935.000                     3303.3
936.000                     3363.5
937.000                     3414.4
938.000                     3359.4
939.000                     3369.2
940.000                     3353.6
941.000                     3359.9
942.000                     3272.6
943.000                     3438.8
944.000                     3316.5
945.000                     3431.2
946.000                     3408.8
947.000                     3344.5
948.000                     3364.5
949.000                     3383
950.000                     3418.7
951.000                     3296.9
952.000                     3294.6
953.000                     3293.7
954.000                     3384.7
955.000                     3262.7
956.000                     3402.4
957.000                     3304
958.000                     3212.3
959.000                     3215.5
960.000                     3211.1
961.000                     3108.6
962.000                     3125
963.000                     3194.2
964.000                     3495.4
965.000                     3545.2
966.000                     3898.9
967.000                     5317.5
968.000                     6934.7
969.000                     5707.9
970.000                     3593.5
971.000                     3189.7
972.000                     3033
973.000                     3153.9
974.000                     3096
975.000                     3091.4
976.000                     3185.7
977.000                     3455.8
978.000                     3311
979.000                     3215.3
980.000                     3060.9
981.000                     2957.2
982.000                     2905.4
983.000                     3045.1
984.000                     3001.5
985.000                     2923.7
986.000                     2937.1
987.000                     2966.7
988.000                     3033.5
989.000                     3010.9
990.000                     3010
991.000                     2963.5
992.000                     3049.5
993.000                     3012.4
994.000                     2937.7
995.000                     3018.7
996.000                     2928.9
997.000                     2910
998.000                     2932
999.000                     3035.3
1000.000                    3029.5
1001.000                    3003.2
1002.000                    2925.2
1003.000                    2890
1004.000                    2920.6
1005.000                    2976.8
1006.000                    2984.1
1007.000                    2897.3
1008.000                    2899.8
1009.000                    2882.6
1010.000                    2972.5
1011.000                    2983.6
1012.000                    3101.9
1013.000                    2984.2
1014.000                    2913.9
1015.000                    2921.8
1016.000                    3010.3
1017.000                    2997
1018.000                    2965.4
1019.000                    2891.7
1020.000                    2952.7
1021.000                    2960.6
1022.000                    2929
1023.000                    2880.1
1024.000                    2936.7
1025.000                    2910.2
1026.000                    2922.7
1027.000                    2972.7
1028.000                    2911.8
1029.000                    2964.3
1030.000                    2894.8
1031.000                    2890.8
1032.000                    2996.6
1033.000                    2995.9
1034.000                    3088
1035.000                    3093.7
1036.000                    2946
1037.000                    2903.2
1038.000                    2909.3
1039.000                    2902.5
1040.000                    2906.8
1041.000                    3079.4
1042.000                    3162.7
1043.000                    2949.2
1044.000                    2967.5
1045.000                    2904.6
1046.000                    2951.5
1047.000                    2845.3
1048.000                    2803.2
1049.000                    2847
1050.000                    2914.5
1051.000                    2877.6
1052.000                    2849.4
1053.000                    2981.1
1054.000                    3002.7
1055.000                    2953.6
1056.000                    2920.8
1057.000                    2945.5
1058.000                    2887.8
1059.000                    2844.8
1060.000                    2930.7
1061.000                    2838.3
1062.000                    2878
1063.000                    2947.8
1064.000                    2942.3
1065.000                    2880
1066.000                    2871.2
1067.000                    2801.1
1068.000                    2911.8
1069.000                    2864.1
1070.000                    2930.4
1071.000                    2847.6
1072.000                    3004.7
1073.000                    2896
1074.000                    2875.2
1075.000                    2911.9
1076.000                    2910.4
1077.000                    2820.7
1078.000                    2833.8
1079.000                    2822.9
1080.000                    2890.2
1081.000                    2904
1082.000                    2890.9
1083.000                    2881.4
1084.000                    2985.7
1085.000                    2930.6
1086.000                    2825.2
1087.000                    2906.7
1088.000                    2910.8
1089.000                    2955.2
1090.000                    2907.9
1091.000                    2950
1092.000                    2885.2
1093.000                    2934.4
1094.000                    2927.2
1095.000                    3012.2
1096.000                    3004.2
1097.000                    3022.4
1098.000                    3088.6
1099.000                    3089.4
1100.000                    3208.6
1101.000                    3119.8
1102.000                    3142.6
1103.000                    2957.5
1104.000                    2945.2
1105.000                    3051.6
1106.000                    2917.5
1107.000                    2981.4
1108.000                    3013.5
1109.000                    3038.3
1110.000                    2947.6
1111.000                    2945.2
1112.000                    3022.3
1113.000                    3006
1114.000                    2998.9
1115.000                    3009
1116.000                    3023.4
1117.000                    2887.2
1118.000                    2866.8
1119.000                    2923
1120.000                    2962.1
1121.000                    2884
1122.000                    2909.4
1123.000                    2952.7
1124.000                    2965.9
1125.000                    2999.9
1126.000                    2990.3
1127.000                    3191.7
1128.000                    3221.6
1129.000                    3334.2
1130.000                    3384.2
1131.000                    3211.3
1132.000                    3154.3
1133.000                    3030.2
1134.000                    2916.3
1135.000                    2867.7
1136.000                    2968.8
1137.000                    2828.6
1138.000                    2971
1139.000                    2879.2
1140.000                    2978.2
1141.000                    2973.2
1142.000                    3000.9
1143.000                    2938.1
1144.000                    2870.1
1145.000                    2896.8
1146.000                    2890.7
1147.000                    2947.4
1148.000                    2920.2
1149.000                    3015.9
1150.000                    3096.9
1151.000                    3096.6
1152.000                    3057.8
1153.000                    2980.9
1154.000                    2869.9
1155.000                    2933.7
1156.000                    2914.6
1157.000                    2890.1
1158.000                    2942
1159.000                    2868.4
1160.000                    2914.9
1161.000                    2963.1
1162.000                    2892.9
1163.000                    2959.1
1164.000                    2980.8
1165.000                    2980
1166.000                    2961.5
1167.000                    3058.3
1168.000                    3003.2
1169.000                    3050.7
1170.000                    2986.8
1171.000                    3109.4
1172.000                    3094.6
1173.000                    3035.7
1174.000                    3067.6
1175.000                    3154.3
1176.000                    2959.7
1177.000                    2953
1178.000                    2740.7
1179.000                    2711
1180.000                    2668.9
1181.000                    2657.5
1182.000                    2571.3
1183.000                    2398.7
1184.000                    2348.8
1185.000                    2401.6
1186.000                    2293.9
1187.000                    2207.4
1188.000                    2264.7
1189.000                    2158.6
1190.000                    2126.6
1191.000                    2143
1192.000                    2090
1193.000                    2142
1194.000                    2044.3
1195.000                    2070
1196.000                    2133.2
1197.000                    2060.5
1198.000                    2069.8
1199.000                    2066.6
1200.000                    2118.7
1201.000                    2137.4
1202.000                    2164.7
1203.000                    2074.2
1204.000                    2029.9
1205.000                    2088
1206.000                    2128.8
1207.000                    2124.2
1208.000                    2199.5
1209.000                    2215.1
1210.000                    2168.6
1211.000                    2206
1212.000                    2169.9
1213.000                    2197.8
1214.000                    2292.8
1215.000                    2229.1
1216.000                    2148.5
1217.000                    2144.1
1218.000                    2167.7
1219.000                    2109.2
1220.000                    2024.5
1221.000                    2014.5
1222.000                    1946.5
1223.000                    1980
1224.000                    1961.1
1225.000                    2062.9
1226.000                    2280.8
1227.000                    2408.3
1228.000                    2135.9
1229.000                    1923.4
1230.000                    1787.4
1231.000                    1833.3
1232.000                    1958.6
1233.000                    2785.9
1234.000                    4988
1235.000                    6981
1236.000                    5750
1237.000                    3030.9
1238.000                    1637.5
1239.000                    1312.4
1240.000                    1208.7
1241.000                    1231.4
1242.000                    1357.1
1243.000                    1589.2
1244.000                    1659.4
1245.000                    1661.6
1246.000                    1545.9
1247.000                    1410.9
1248.000                    1301.4
1249.000                    1238.3
1250.000                    1092.7
1251.000                    1009.2
1252.000                     919.9000
1253.000                     930.1000
1254.000                     954.5000
1255.000                     963.5000
1256.000                    1000.2
1257.000                     947.7000
1258.000                     892.6000
1259.000                     892.9000
1260.000                     874.4000