File: ITO_Radiator/XPS--3_1-In3d.txt
# Transition                      In 3d
# Notes
# Creation Comment
# Energy Mode                     KE
# Start Energy in eV              793.6
# End Energy in eV                833.6
# Energy Step in eV               0.1
# Number Of Sweeps                4
# Dwell Time per Sweep in s       0.3
# Analyser Mode                   CAE
# Pass Energy in eV/Retard Ratio  25
# Magnification                   high
# Divide Voltages By 10           off
# Excitation Source               Mg Ka 1253.6 eV normal
# Excitation Energy in eV         1253.6
# Analyser Workfunction in eV     4.5
# Entrance Slit                   6 x 12 mm
# Exit Slit                       5 x 11 mm
#
#
# Kinetic Energy in eV         Counts
# --------------------         ------
793.600                    19511
793.700                    19480.5
793.800                    19496.8
793.900                    19391.5
794.000                    19406.2
794.100                    18980.5
794.200                    18978
794.300                    19003.2
794.400                    18721
794.500                    18658.8
794.600                    18751.5
794.700                    18729.5
794.800                    18529
794.900                    18452.2
795.000                    18375.2
795.100                    18416
795.200                    18450.2
795.300                    18217.5
795.400                    18208.5
795.500                    18092.5
795.600                    17864
795.700                    17983
795.800                    17845.5
795.900                    17818
796.000                    18024.2
796.100                    17605
796.200                    17386.5
796.300                    17613.8
796.400                    17377
796.500                    17578.2
796.600                    17503.2
796.700                    17232
796.800                    17054.8
796.900                    17027.5
797.000                    17105.8
797.100                    17187.8
797.200                    17118.2
797.300                    17355.2
797.400                    17213.8
797.500                    16990.2
797.600                    17024.8
797.700                    17082.5
797.800                    17033.5
797.900                    17020.8
798.000                    17073
798.100                    17209.8
798.200                    17350.2
798.300                    17604.2
798.400                    17627.8
798.500                    17829.8
798.600                    18284.2
798.700                    18667.2
798.800                    18950.8
798.900                    19408.2
799.000                    19938.5
799.100                    20815
799.200                    21652
799.300                    23031
799.400                    24132
799.500                    25812.2
799.600                    27417
799.700                    29608.2
799.800                    31790.8
799.900                    34452
800.000                    37176
800.100                    40187.2
800.200                    43184.8
800.300                    46448
800.400                    49534.5
800.500                    52493
800.600                    55445.2
800.700                    58126
800.800                    59550
800.900                    61480.8
801.000                    62155.8
801.100                    62502.5
801.200                    62401.5
801.300                    61223.8
801.400                    60021
801.500                    57123.5
801.600                    54176.8
801.700                    51030.8
801.800                    47259.5
801.900                    43327.8
802.000                    39594.2
802.100                    35737.8
802.200                    31782.8
802.300                    29102
802.400                    25948.2
802.500                    23837.8
802.600                    21360.5
802.700                    19896.2
802.800                    18547
802.900                    17487.5
803.000                    16794
803.100                    15732.2
803.200                    15203.8
803.300                    14870.5
803.400                    14570.2
803.500                    14198
803.600                    13941.8
803.700                    13491.8
803.800                    13182
803.900                    13077.8
804.000                    12807.2
804.100                    12866.5
804.200                    12635.2
804.300                    12550.2
804.400                    12516
804.500                    12544.8
804.600                    12615
804.700                    12379.8
804.800                    12613.2
804.900                    12593.2
805.000                    12530.5
805.100                    12597
805.200                    12499
805.300                    12787.5
805.400                    12847
805.500                    13121.8
805.600                    13417.2
805.700                    13534.8
805.800                    13754.8
805.900                    13847.2
806.000                    14474.8
806.100                    15066
806.200                    15536.8
806.300                    16171.8
806.400                    16845.2
806.500                    17870.8
806.600                    19097.8
806.700                    20357.2
806.800                    21763.2
806.900                    23688.5
807.000                    25898.8
807.100                    28540.5
807.200                    31475
807.300                    34980.2
807.400                    38134
807.500                    42164
807.600                    46476.5
807.700                    50918.8
807.800                    55424.2
807.900                    60551.8
808.000                    64472.2
808.100                    68963.8
808.200                    73420.5
808.300                    76746
808.400                    79685.2
808.500                    82313.8
808.600                    83170
808.700                    83776.2
808.800                    82853.5
808.900                    81487.8
809.000                    78874.8
809.100                    75311.5
809.200                    71360
809.300                    65946
809.400                    60730
809.500                    55307.5
809.600                    50084.5
809.700                    44478.5
809.800                    39603.8
809.900                    35103.8
810.000                    31394
810.100                    28311.8
810.200                    25639.2
810.300                    23203.2
810.400                    21316.2
810.500                    20018.5
810.600                    18778.2
810.700                    17669.5
810.800                    16854.2
810.900                    16240.2
811.000                    15514.5
811.100                    15174
811.200                    14909.5
811.300                    14239
811.400                    14007
811.500                    13827.2
811.600                    13425.8
811.700                    13206.2
811.800                    12732.2
811.900                    12427
812.000                    12343.8
812.100                    11861.5
812.200                    11560.5
812.300                    11313.2
812.400                    10880.5
812.500                    10726.2
812.600                    10423.2
812.700                    10294.2
812.800                    10152.2
812.900                    10194.8
813.000                     9896
813.100                     9661.5
813.200                     9642.25
813.300                     9659.5
813.400                     9511.25
813.500                     9573.25
813.600                     9531.5
813.700                     9342
813.800                     9338.5
813.900                     9312
814.000                     9215.75
814.100                     9025.25
814.200                     9057.5
814.300                     8999
814.400                     8913.5
814.500                     8765.5
814.600                     8866.25
814.700                     8872
814.800                     8816.25
814.900                     8825.75
815.000                     8892.75
815.100                     8858.75
815.200                     8851.5
815.300                     9158.25
815.400                     8922.75
815.500                     9091.75
815.600                     9419.5
815.700                     9642
815.800                     9780
815.900                    10115
816.000                    10396.5
816.100                    10700
816.200                    10992.5
816.300                    11442.2
816.400                    11731.5
816.500                    12058.5
816.600                    12430.8
816.700                    12654
816.800                    12882.2
816.900                    13269
817.000                    13484.5
817.100                    13680.8
817.200                    13588.5
817.300                    13751.2
817.400                    13724.5
817.500                    13652.2
817.600                    13496.2
817.700                    13333.5
817.800                    13497.5
817.900                    13291
818.000                    13232.5
818.100                    12944.5
818.200                    13090.8
818.300                    12791.8
818.400                    12676
818.500                    12672.5
818.600                    12669.5
818.700                    12668
818.800                    12530.2
818.900                    12220.8
819.000                    12333.5
819.100                    11954.2
819.200                    11909.2
819.300                    11673
819.400                    11650.5
819.500                    11092
819.600                    10634.2
819.700                    10542
819.800                    10276.5
819.900                     9998.25
820.000                     9694.25
820.100                     9219.25
820.200                     9036
820.300                     8715.5
820.400                     8618.25
820.500                     8324.5
820.600                     8222.75
820.700                     8104.25
820.800                     8097.25
820.900                     7942.25
821.000                     7970.25
821.100                     7787.75
821.200                     7722.5
821.300                     7599
821.400                     7596
821.500                     7658.75
821.600                     7572.25
821.700                     7556
821.800                     7505.25
821.900                     7411.25
822.000                     7385.5
822.100                     7315.75
822.200                     7270.75
822.300                     7187.75
822.400                     7359.75
822.500                     7280.5
822.600                     7287.25
822.700                     7269
822.800                     7206.5
822.900                     7168.25
823.000                     7204.25
823.100                     7213
823.200                     7190.75
823.300                     7002.75
823.400                     7093
823.500                     7105.75
823.600                     7094
823.700                     7031.75
823.800                     6968
823.900                     7082.75
824.000                     7105.75
824.100                     7125.5
824.200                     7121.5
824.300                     7095
824.400                     7051.75
824.500                     6982
824.600                     7030.25
824.700                     7140.25
824.800                     7057.75
824.900                     7256.25
825.000                     7043
825.100                     7035
825.200                     7088.5
825.300                     7237.75
825.400                     7122
825.500                     7138
825.600                     7220
825.700                     7155
825.800                     7261
825.900                     7191
826.000                     7320.75
826.100                     7163
826.200                     7178.25
826.300                     7206.25
826.400                     7217.25
826.500                     7272.75
826.600                     7212.5
826.700                     7197.75
826.800                     7154.25
826.900                     7150.5
827.000                     7182.5
827.100                     7104.75
827.200                     6997.5
827.300                     7034.5
827.400                     7011.5
827.500                     6982.75
827.600                     7022.75
827.700                     7003.75
827.800                     7067.5
827.900                     6953
828.000                     7124
828.100                     7116
828.200                     7033.75
828.300                     7074.5
828.400                     7082
828.500                     7093.25
828.600                     7134.75
828.700                     7166.25
828.800                     7070.25
828.900                     7055.75
829.000                     7035.75
829.100                     7099.25
829.200                     7082.5
829.300                     7188.75
829.400                     7181.5
829.500                     7132.25
829.600                     7021.75
829.700                     7013.5
829.800                     7078
829.900                     6937.5
830.000                     7105.25
830.100                     6880.75
830.200                     6770
830.300                     6958.5
830.400                     6823.25
830.500                     6777
830.600                     6863.5
830.700                     6886.25
830.800                     6877.75
830.900                     6806
831.000                     6727.5
831.100                     6758.25
831.200                     6634
831.300                     6710
831.400                     6511.75
831.500                     6633.75
831.600                     6700.75
831.700                     6666.25
831.800                     6583
831.900                     6652.25
832.000                     6659.25
832.100                     6714.75
832.200                     6703.5
832.300                     6642.25
832.400                     6684.5
832.500                     6694.75
832.600                     6659.5
832.700                     6662.5
832.800                     6546.75
832.900                     6547.5
833.000                     6545.5
833.100                     6712
833.200                     6592.5
833.300                     6594.25
833.400                     6653.75
833.500                     6691
833.600                     6557