File: ITO_Radiator/XPS--4_1-Sn3d.txt
# Transition                      Sn 3d
# Notes
# Creation Comment
# Energy Mode                     KE
# Start Energy in eV              749.6
# End Energy in eV                779.6
# Energy Step in eV               0.1
# Number Of Sweeps                15
# Dwell Time per Sweep in s       0.3
# Analyser Mode                   CAE
# Pass Energy in eV/Retard Ratio  25
# Magnification                   high
# Divide Voltages By 10           off
# Excitation Source               Mg Ka 1253.6 eV normal
# Excitation Energy in eV         1253.6
# Analyser Workfunction in eV     4.5
# Entrance Slit                   6 x 12 mm
# Exit Slit                       5 x 11 mm
#
#
# Kinetic Energy in eV         Counts
# --------------------         ------
749.600                    90187.8
749.700                    89609
749.800                    89469.2
749.900                    89622
750.000                    89821
750.100                    90166
750.200                    90270.5
750.300                    89687
750.400                    89625.8
750.500                    89536.8
750.600                    89985.2
750.700                    89468.8
750.800                    89423.5
750.900                    89581.2
751.000                    90214.5
751.100                    90111
751.200                    90002
751.300                    89697
751.400                    89311
751.500                    89529.5
751.600                    89066.8
751.700                    89363
751.800                    89510.8
751.900                    89400.5
752.000                    89910.5
752.100                    89286.8
752.200                    89206
752.300                    88845.5
752.400                    89544.2
752.500                    89373.8
752.600                    88958.8
752.700                    89228.8
752.800                    89434.2
752.900                    89029
753.000                    89502.8
753.100                    88826
753.200                    88671.2
753.300                    89215
753.400                    88783.5
753.500                    88760.8
753.600                    89242.2
753.700                    88914.5
753.800                    89102.2
753.900                    88701
754.000                    88755.2
754.100                    88882.2
754.200                    88730.5
754.300                    88533
754.400                    89036.5
754.500                    88319.5
754.600                    88604.5
754.700                    88222
754.800                    88973.5
754.900                    88666.5
755.000                    88037.8
755.100                    88668.8
755.200                    88903.2
755.300                    88554.8
755.400                    88950.2
755.500                    88269.8
755.600                    88862.8
755.700                    88950
755.800                    88954.2
755.900                    88467.8
756.000                    89183.5
756.100                    89731.5
756.200                    89627
756.300                    89649.2
756.400                    90053
756.500                    90338.8
756.600                    90997.2
756.700                    91591.8
756.800                    92594.8
756.900                    93279.2
757.000                    93769
757.100                    95514
757.200                    96609.5
757.300                    98042.8
757.400                    98776
757.500                   100516
757.600                   102004
757.700                   104013
757.800                   105079
757.900                   106229
758.000                   107427
758.100                   108436
758.200                   109549
758.300                   109992
758.400                   109841
758.500                   109361
758.600                   108799
758.700                   108262
758.800                   106890
758.900                   105728
759.000                   104809
759.100                   102893
759.200                   100586
759.300                    99003.8
759.400                    97523.2
759.500                    95510.5
759.600                    94332.5
759.700                    93143.5
759.800                    91884.8
759.900                    90664.8
760.000                    89897.2
760.100                    89509.8
760.200                    89142.2
760.300                    88609.8
760.400                    88272
760.500                    87920.2
760.600                    87691.5
760.700                    87175
760.800                    87542.5
760.900                    87202
761.000                    86858.2
761.100                    87158
761.200                    86868
761.300                    86656.2
761.400                    86700.5
761.500                    86690
761.600                    87080.8
761.700                    86898.5
761.800                    86966
761.900                    86547.8
762.000                    86418.5
762.100                    86033.2
762.200                    86325.2
762.300                    86317.8
762.400                    86262.5
762.500                    86901
762.600                    86549.8
762.700                    86319.8
762.800                    85902.5
762.900                    85958
763.000                    86635.5
763.100                    86672.2
763.200                    86626.5
763.300                    86816.8
763.400                    86732.2
763.500                    86778.8
763.600                    87055.5
763.700                    86927.2
763.800                    87281
763.900                    87301.2
764.000                    87374.2
764.100                    87527.8
764.200                    87514.2
764.300                    88097.2
764.400                    88579.8
764.500                    88892
764.600                    88787.5
764.700                    88736
764.800                    90104.5
764.900                    90330
765.000                    91188.8
765.100                    91766
765.200                    93155
765.300                    94466
765.400                    96332.8
765.500                    97683.2
765.600                    99518.5
765.700                   100974
765.800                   103096
765.900                   105834
766.000                   108166
766.100                   109678
766.200                   112280
766.300                   114543
766.400                   116790
766.500                   118284
766.600                   118974
766.700                   120507
766.800                   121524
766.900                   121146
767.000                   120242
767.100                   119690
767.200                   118189
767.300                   116220
767.400                   113574
767.500                   111956
767.600                   109388
767.700                   106038
767.800                   103400
767.900                   100976
768.000                    99060.5
768.100                    97191
768.200                    95545.5
768.300                    94159
768.400                    92618.2
768.500                    91764.8
768.600                    90643.2
768.700                    90199.8
768.800                    89683.2
768.900                    89325.8
769.000                    88790.5
769.100                    88136.2
769.200                    88431.5
769.300                    88498.2
769.400                    87869.2
769.500                    87699.2
769.600                    87752
769.700                    87352.2
769.800                    87209.8
769.900                    86901.2
770.000                    86909.2
770.100                    86965
770.200                    86822
770.300                    86279.5
770.400                    86492
770.500                    86056.8
770.600                    85945.8
770.700                    86221.5
770.800                    86723.8
770.900                    86388.8
771.000                    86359.8
771.100                    86112.8
771.200                    86500.2
771.300                    86446.8
771.400                    86231.2
771.500                    85939
771.600                    86084.2
771.700                    86372.5
771.800                    86317.5
771.900                    86153.8
772.000                    86028
772.100                    86108.5
772.200                    86170
772.300                    85952
772.400                    85733.8
772.500                    86136.5
772.600                    86006.8
772.700                    85700.2
772.800                    86306.2
772.900                    85887.2
773.000                    86147
773.100                    86431.5
773.200                    86139
773.300                    86260.2
773.400                    86182.5
773.500                    86979.8
773.600                    86812
773.700                    86493
773.800                    86395.5
773.900                    86674.5
774.000                    86621.8
774.100                    86657.2
774.200                    87272
774.300                    87874
774.400                    88107.5
774.500                    88029
774.600                    87921.8
774.700                    88393.2
774.800                    88472.5
774.900                    88193.5
775.000                    88660.8
775.100                    88976.2
775.200                    89392
775.300                    89499.8
775.400                    89216.2
775.500                    89538.2
775.600                    89362.8
775.700                    88853.2
775.800                    89189.2
775.900                    89288.8
776.000                    89402.5
776.100                    89610.8
776.200                    88932.8
776.300                    89436.2
776.400                    89398.2
776.500                    89866.2
776.600                    89403.5
776.700                    89561.8
776.800                    89459.2
776.900                    89042
777.000                    89362.8
777.100                    89382.2
777.200                    89537
777.300                    89934.8
777.400                    89549.2
777.500                    89640.8
777.600                    89413.2
777.700                    89692.5
777.800                    89163
777.900                    88964.8
778.000                    88769.8
778.100                    88810.2
778.200                    88910.5
778.300                    88940.2
778.400                    88765.8
778.500                    88622.5
778.600                    88660.2
778.700                    88209.8
778.800                    88201.5
778.900                    88794.8
779.000                    88398.8
779.100                    88446
779.200                    89008.2
779.300                    88574.5
779.400                    88537.5
779.500                    88902.2
779.600                    88794.2