File: ITO_Radiator/XPS--11_1-Sn3d.txt
# Transition                      Sn 3d
# Notes
# Creation Comment
# Energy Mode                     KE
# Start Energy in eV              749.6
# End Energy in eV                779.6
# Energy Step in eV               0.1
# Number Of Sweeps                8
# Dwell Time per Sweep in s       0.3
# Analyser Mode                   CAE
# Pass Energy in eV/Retard Ratio  25
# Magnification                   high
# Divide Voltages By 10           off
# Excitation Source               Mg Ka 1253.6 eV normal
# Excitation Energy in eV         1253.6
# Analyser Workfunction in eV     4.5
# Entrance Slit                   6 x 12 mm
# Exit Slit                       5 x 11 mm
#
#
# Kinetic Energy in eV         Counts
# --------------------         ------
749.600                    54213
749.700                    54572.5
749.800                    54470.5
749.900                    54560
750.000                    54267.8
750.100                    54895.2
750.200                    54604.2
750.300                    54321.5
750.400                    54513.8
750.500                    54409.2
750.600                    54629.8
750.700                    53875.5
750.800                    54123
750.900                    54484.2
751.000                    54731.8
751.100                    54607.5
751.200                    54579.5
751.300                    54414.2
751.400                    54561.5
751.500                    54901.2
751.600                    54530.8
751.700                    54651.2
751.800                    54053.8
751.900                    54199.8
752.000                    54664.2
752.100                    54315.5
752.200                    54299.8
752.300                    54364.8
752.400                    54070.8
752.500                    54368.2
752.600                    54414
752.700                    54365.5
752.800                    54393.8
752.900                    54478
753.000                    53917.2
753.100                    54248
753.200                    53906.8
753.300                    54197.8
753.400                    54341
753.500                    53965.8
753.600                    53843
753.700                    54328.5
753.800                    54182
753.900                    54003.2
754.000                    53978.8
754.100                    54152.8
754.200                    54085.2
754.300                    54153.5
754.400                    53866.2
754.500                    53698
754.600                    53962.8
754.700                    54068
754.800                    54120.8
754.900                    53993.5
755.000                    53573.8
755.100                    53669
755.200                    53992.2
755.300                    53768
755.400                    54006.8
755.500                    54189.8
755.600                    54049.2
755.700                    53997
755.800                    53976
755.900                    54699.8
756.000                    54411
756.100                    54379.2
756.200                    54353.5
756.300                    54213
756.400                    54513.2
756.500                    54839.2
756.600                    55323.2
756.700                    55687.5
756.800                    56338.5
756.900                    56896
757.000                    57339.2
757.100                    58250.8
757.200                    59113.2
757.300                    60187.5
757.400                    61372
757.500                    62702
757.600                    64134.5
757.700                    65951.8
757.800                    67142.5
757.900                    68647.2
758.000                    70409.8
758.100                    71483.8
758.200                    72981
758.300                    74379.8
758.400                    75103
758.500                    75588.2
758.600                    75886.8
758.700                    75306.5
758.800                    74569.8
758.900                    73672
759.000                    71940.8
759.100                    70450
759.200                    69086.8
759.300                    66380
759.400                    64970.5
759.500                    63251
759.600                    61431
759.700                    59962.2
759.800                    58837
759.900                    57627.8
760.000                    56823.8
760.100                    55795.5
760.200                    55161
760.300                    54763.5
760.400                    54141
760.500                    54279.2
760.600                    53639.8
760.700                    53235.8
760.800                    52985.8
760.900                    53287.2
761.000                    52939
761.100                    52795
761.200                    52386.5
761.300                    52397.8
761.400                    52355.8
761.500                    52369.5
761.600                    52341
761.700                    52188
761.800                    52368.8
761.900                    52139.5
762.000                    52039.2
762.100                    52452.2
762.200                    52137.8
762.300                    52188.5
762.400                    52324.5
762.500                    51828.2
762.600                    51808
762.700                    51662
762.800                    52193.8
762.900                    52119
763.000                    51829.5
763.100                    52171.2
763.200                    52070.8
763.300                    52363.5
763.400                    52116.2
763.500                    52312.2
763.600                    52277.5
763.700                    52256
763.800                    52724.2
763.900                    52292.8
764.000                    52136
764.100                    52460.2
764.200                    52083.2
764.300                    52525
764.400                    52795
764.500                    52817.8
764.600                    52858.5
764.700                    53041
764.800                    53720.2
764.900                    54053
765.000                    54175.5
765.100                    54840
765.200                    55759
765.300                    56440.8
765.400                    57676.5
765.500                    58684.2
765.600                    59935.2
765.700                    61916
765.800                    63183
765.900                    65164.8
766.000                    67395
766.100                    69574.8
766.200                    72256.2
766.300                    74696
766.400                    77059.2
766.500                    79873.8
766.600                    82077.5
766.700                    83328.8
766.800                    85075.8
766.900                    85633.8
767.000                    86381.2
767.100                    85396
767.200                    84652.2
767.300                    83448.2
767.400                    81476.5
767.500                    79471.2
767.600                    76823.2
767.700                    74222.5
767.800                    71389.5
767.900                    69112
768.000                    66423
768.100                    64190.8
768.200                    62489
768.300                    59965.8
768.400                    59094
768.500                    58201.2
768.600                    56949.5
768.700                    56386.5
768.800                    55643.2
768.900                    54788.5
769.000                    54902.8
769.100                    54138
769.200                    53587.2
769.300                    53590
769.400                    53037.8
769.500                    53269
769.600                    52919.2
769.700                    52544.2
769.800                    52228
769.900                    52587.5
770.000                    52497
770.100                    51920.8
770.200                    52006
770.300                    51974.2
770.400                    51958
770.500                    51827.2
770.600                    51800.8
770.700                    51712.8
770.800                    51387.2
770.900                    51192
771.000                    51600.8
771.100                    51696.2
771.200                    51431.2
771.300                    51395.2
771.400                    51156
771.500                    51535
771.600                    51408.5
771.700                    51304.2
771.800                    51477.5
771.900                    51390.2
772.000                    51428.2
772.100                    51632.2
772.200                    51933.2
772.300                    51619.8
772.400                    51484.8
772.500                    51576.8
772.600                    51717.2
772.700                    51654.2
772.800                    51593
772.900                    51723.8
773.000                    51696.8
773.100                    51325
773.200                    51417
773.300                    51194
773.400                    51626
773.500                    51402
773.600                    51465.5
773.700                    51523.8
773.800                    51689.2
773.900                    51785.8
774.000                    52097.8
774.100                    52173
774.200                    52485.2
774.300                    52266
774.400                    52122.5
774.500                    52514.5
774.600                    52837
774.700                    53196.8
774.800                    53275.5
774.900                    53605.2
775.000                    53912.8
775.100                    53349.5
775.200                    53988.2
775.300                    54069.5
775.400                    54458
775.500                    54508.8
775.600                    54186
775.700                    54646.5
775.800                    54557.2
775.900                    54276.5
776.000                    54422
776.100                    54192
776.200                    53940.2
776.300                    54062.2
776.400                    54441.2
776.500                    54184
776.600                    54002.2
776.700                    54041.5
776.800                    53991.8
776.900                    53859.8
777.000                    53868.2
777.100                    54273.8
777.200                    53743.8
777.300                    54052.2
777.400                    54387.8
777.500                    54018.2
777.600                    53345.2
777.700                    53472
777.800                    53716.8
777.900                    54092.8
778.000                    53791.8
778.100                    53683.5
778.200                    53060.5
778.300                    52998
778.400                    53054.2
778.500                    52609.5
778.600                    52834.8
778.700                    53005.8
778.800                    52935.2
778.900                    52862.5
779.000                    53295.2
779.100                    53027.2
779.200                    53015
779.300                    53039.2
779.400                    53297.8
779.500                    53253
779.600                    53275.2