File: SS_Graphit33/XPS--1_1-Wide.txt
# Transition                      wide
# Notes
# Creation Comment
# Energy Mode                     KE
# Start Energy in eV              150
# End Energy in eV                1260
# Energy Step in eV               0.5
# Number Of Sweeps                1
# Dwell Time per Sweep in s       0.3
# Analyser Mode                   CAE
# Pass Energy in eV/Retard Ratio  50
# Magnification                   high
# Divide Voltages By 10           off
# Excitation Source               Mg Ka 1253.6 eV normal
# Excitation Energy in eV         1253.6
# Analyser Workfunction in eV     4.5
# Entrance Slit                   6 x 12 mm
# Exit Slit                       5 x 11 mm
#
#
# Kinetic Energy in eV         Counts
# --------------------         ------
150.000                    18404.7
151.000                    18332
152.000                    18009.1
153.000                    18450.2
154.000                    18115.5
155.000                    18276.4
156.000                    18370.3
157.000                    18134.9
158.000                    18275.1
159.000                    18129.7
160.000                    18092.9
161.000                    17914.6
162.000                    18044.5
163.000                    17748.7
164.000                    18160.1
165.000                    17935.6
166.000                    17916.8
167.000                    17874.5
168.000                    18026.1
169.000                    17904.9
170.000                    17932.9
171.000                    17812.8
172.000                    17793.3
173.000                    17939.3
174.000                    17590.2
175.000                    17613.2
176.000                    17582.5
177.000                    17687.6
178.000                    17429.3
179.000                    17606.3
180.000                    17586
181.000                    17449.1
182.000                    17434.9
183.000                    17552.8
184.000                    17535.3
185.000                    17510.6
186.000                    17367.5
187.000                    17420.3
188.000                    17310.7
189.000                    17452.6
190.000                    17083
191.000                    17369.3
192.000                    17458.7
193.000                    17146.5
194.000                    17248.8
195.000                    17038.4
196.000                    17199.4
197.000                    17116.2
198.000                    17160.1
199.000                    17028
200.000                    17069.1
201.000                    17046.2
202.000                    16871.1
203.000                    17226.3
204.000                    17031.2
205.000                    16940.1
206.000                    17000.7
207.000                    16904.6
208.000                    17027.7
209.000                    17019.5
210.000                    16975
211.000                    16743.5
212.000                    16989
213.000                    16831.9
214.000                    17001.6
215.000                    16746.2
216.000                    16781.7
217.000                    16886.5
218.000                    16781
219.000                    16840.2
220.000                    16881.3
221.000                    16924.5
222.000                    16824.8
223.000                    16684.7
224.000                    16735.6
225.000                    16600.5
226.000                    16621.9
227.000                    16706.5
228.000                    16416.5
229.000                    16425.9
230.000                    16663.8
231.000                    16387.7
232.000                    16476.5
233.000                    16697.9
234.000                    16838
235.000                    16753.7
236.000                    17373.3
237.000                    17724
238.000                    18374.7
239.000                    19032.9
240.000                    19412.4
241.000                    18695.1
242.000                    17665.8
243.000                    16894.8
244.000                    16667.2
245.000                    16552.5
246.000                    16582.5
247.000                    16043.1
248.000                    16041.5
249.000                    15994.6
250.000                    16091.5
251.000                    16108
252.000                    16506
253.000                    16607.4
254.000                    16819.1
255.000                    16947.7
256.000                    17243.8
257.000                    17316.1
258.000                    17527.4
259.000                    17428.2
260.000                    17348.3
261.000                    17284.2
262.000                    16956.4
263.000                    16735.7
264.000                    16554.3
265.000                    16114.6
266.000                    16082.8
267.000                    15511.3
268.000                    15365.5
269.000                    15176.8
270.000                    14440.2
271.000                    13955.5
272.000                    13519.5
273.000                    12919.3
274.000                    12368.8
275.000                    11980.1
276.000                    11484.5
277.000                    10899.2
278.000                    10607.7
279.000                    10238.3
280.000                    10068.5
281.000                     9860.2
282.000                     9367.6
283.000                     9235.4
284.000                     9086
285.000                     8987.9
286.000                     8979.6
287.000                     8986.7
288.000                     8993.3
289.000                     9016.2
290.000                     8822.1
291.000                     8977
292.000                     8886.9
293.000                     8997.1
294.000                     9082.3
295.000                     8808.6
296.000                     8992.1
297.000                     8938.1
298.000                     8949.9
299.000                     8914
300.000                     8908.6
301.000                     9028.6
302.000                     8973.4
303.000                     8995.6
304.000                     8877.4
305.000                     8807.2
306.000                     8843.7
307.000                     8934.3
308.000                     8938.7
309.000                     8832.4
310.000                     8877.2
311.000                     8880.5
312.000                     8756.5
313.000                     8878.5
314.000                     8833.7
315.000                     9013.8
316.000                     8728.9
317.000                     8831.6
318.000                     8765.8
319.000                     8711.6
320.000                     8988.4
321.000                     8714.3
322.000                     9021.7
323.000                     8817.9
324.000                     8910.4
325.000                     8788.6
326.000                     8803.1
327.000                     8765.7
328.000                     8776.9
329.000                     8783.2
330.000                     8829.1
331.000                     8830.2
332.000                     8778.9
333.000                     8678.1
334.000                     8679.7
335.000                     8708.1
336.000                     8757.2
337.000                     8754.5
338.000                     8648.9
339.000                     8735.1
340.000                     8832.4
341.000                     8628.9
342.000                     8626.1
343.000                     8739.3
344.000                     8645.9
345.000                     8636.4
346.000                     8705
347.000                     8654.1
348.000                     8554
349.000                     8488.2
350.000                     8411
351.000                     8070.2
352.000                     8083.6
353.000                     8148.2
354.000                     8083.6
355.000                     8050.8
356.000                     8185.3
357.000                     8116.5
358.000                     8100
359.000                     8013
360.000                     7983.6
361.000                     7831.6
362.000                     7957.1
363.000                     7876.1
364.000                     7848.6
365.000                     7791.4
366.000                     7656
367.000                     7658.6
368.000                     7603.5
369.000                     7557.7
370.000                     7767.8
371.000                     7606.6
372.000                     7664.5
373.000                     7740.8
374.000                     7640
375.000                     7605.6
376.000                     7733.3
377.000                     7735.3
378.000                     7792.7
379.000                     7659.1
380.000                     7694.6
381.000                     7566.5
382.000                     7562.9
383.000                     7715.4
384.000                     7612
385.000                     7528.5
386.000                     7564.3
387.000                     7733.5
388.000                     7515
389.000                     7686.4
390.000                     7718.3
391.000                     7659.5
392.000                     7679.7
393.000                     7608
394.000                     7480.8
395.000                     7615
396.000                     7608.4
397.000                     7649.5
398.000                     7551.2
399.000                     7550.2
400.000                     7621.9
401.000                     7464.5
402.000                     7514.4
403.000                     7540.5
404.000                     7580.6
405.000                     7620.2
406.000                     7769.6
407.000                     7597.1
408.000                     7550.3
409.000                     7544.8
410.000                     7650.7
411.000                     7581.6
412.000                     7711
413.000                     7592.7
414.000                     7641.2
415.000                     7650.5
416.000                     7636.8
417.000                     7460.3
418.000                     7696.9
419.000                     7648.1
420.000                     7530.4
421.000                     7595.7
422.000                     7646.9
423.000                     7692.1
424.000                     7612.5
425.000                     7594.8
426.000                     7636.6
427.000                     7717.5
428.000                     7592.7
429.000                     7673.3
430.000                     7461
431.000                     7525.5
432.000                     7482.7
433.000                     7645.2
434.000                     7591.9
435.000                     7512.7
436.000                     7639
437.000                     7687.8
438.000                     7540.6
439.000                     7620.1
440.000                     7625.5
441.000                     7664.2
442.000                     7794.1
443.000                     7802.8
444.000                     7513.6
445.000                     7764.6
446.000                     7700.3
447.000                     7771.9
448.000                     7726
449.000                     7696.6
450.000                     7843.4
451.000                     7700.8
452.000                     7594.2
453.000                     7723.3
454.000                     7761.5
455.000                     7861.1
456.000                     7882.7
457.000                     7762.4
458.000                     7751.7
459.000                     7700.3
460.000                     7740.2
461.000                     7682.6
462.000                     7705.5
463.000                     7779.1
464.000                     7922.2
465.000                     7845.7
466.000                     7864.4
467.000                     7836.6
468.000                     7924.7
469.000                     7885.3
470.000                     8013.9
471.000                     7832.7
472.000                     7867.6
473.000                     7848.4
474.000                     7808.6
475.000                     7758.5
476.000                     8093.9
477.000                     7826.6
478.000                     7871.8
479.000                     7955.9
480.000                     7866.9
481.000                     7888.4
482.000                     8118.3
483.000                     8082.2
484.000                     8276.2
485.000                     8248.5
486.000                     8324.8
487.000                     8367.5
488.000                     8196
489.000                     8249.3
490.000                     8179.6
491.000                     8109.6
492.000                     8095.3
493.000                     8029.7
494.000                     7987.3
495.000                     7862.2
496.000                     7790.1
497.000                     7719.7
498.000                     7728.1
499.000                     7726.8
500.000                     7634.3
501.000                     7741.7
502.000                     7725.8
503.000                     8087.6
504.000                     8161.7
505.000                     8336.5
506.000                     8551.6
507.000                     8671.7
508.000                     8928.1
509.000                     9089.3
510.000                     8910.2
511.000                     8889.1
512.000                     8677.8
513.000                     8683
514.000                     8330.5
515.000                     8007.8
516.000                     7927.4
517.000                     7449.9
518.000                     7062.6
519.000                     6724.6
520.000                     6722.7
521.000                     6533.8
522.000                     6294
523.000                     6228.1
524.000                     6124.1
525.000                     6239.5
526.000                     6187
527.000                     6206.7
528.000                     6077
529.000                     6209
530.000                     6087.3
531.000                     6087.7
532.000                     6096.3
533.000                     6035.4
534.000                     6076.7
535.000                     6100
536.000                     6007
537.000                     6065
538.000                     6022.6
539.000                     6059.4
540.000                     6032
541.000                     6011.6
542.000                     6059.1
543.000                     6010.6
544.000                     6101.4
545.000                     5960.6
546.000                     6054.3
547.000                     6059.8
548.000                     5971.4
549.000                     6061.4
550.000                     6049.3
551.000                     5945.1
552.000                     5959.2
553.000                     6000.2
554.000                     5894.7
555.000                     5939.8
556.000                     6014.9
557.000                     5904.5
558.000                     5975.9
559.000                     6010.8
560.000                     5910
561.000                     5835.9
562.000                     5880.1
563.000                     5966.4
564.000                     5971.7
565.000                     5967.7
566.000                     5941
567.000                     6048
568.000                     5879.8
569.000                     5959.3
570.000                     5811.9
571.000                     5873.6
572.000                     5895.1
573.000                     5824.9
574.000                     5762.3
575.000                     5832.3
576.000                     5723.4
577.000                     5812.8
578.000                     5813.3
579.000                     5811.5
580.000                     5874.2
581.000                     5842.6
582.000                     5757.9
583.000                     5867.8
584.000                     5730.9
585.000                     5743.6
586.000                     5809.1
587.000                     5828.2
588.000                     5646.9
589.000                     5682.5
590.000                     5764.5
591.000                     5718.8
592.000                     5870.8
593.000                     5799.3
594.000                     5808.5
595.000                     5683.3
596.000                     5856.4
597.000                     5644.8
598.000                     5839
599.000                     5727.5
600.000                     5764.9
601.000                     5713.1
602.000                     5697.8
603.000                     5823.4
604.000                     5862.9
605.000                     5782.4
606.000                     5716.8
607.000                     5797.9
608.000                     5693.1
609.000                     5704.2
610.000                     5785.7
611.000                     5750.6
612.000                     5753.2
613.000                     5655.6
614.000                     5767.2
615.000                     5693.8
616.000                     5698.3
617.000                     5692.7
618.000                     5715.9
619.000                     5801.7
620.000                     5651.7
621.000                     5707.2
622.000                     5695.1
623.000                     5692.4
624.000                     5733.5
625.000                     5630.6
626.000                     5688.1
627.000                     5602.4
628.000                     5743.8
629.000                     5910.8
630.000                     5764
631.000                     5744.1
632.000                     5733.6
633.000                     5739.4
634.000                     5756.7
635.000                     5804.9
636.000                     5685.5
637.000                     5706.1
638.000                     5744.1
639.000                     5719.1
640.000                     5730.5
641.000                     5688.2
642.000                     5732.4
643.000                     5668.8
644.000                     5779.4
645.000                     5774.7
646.000                     5771.8
647.000                     5745.2
648.000                     5740.5
649.000                     5674.7
650.000                     5763.7
651.000                     5827
652.000                     5772.3
653.000                     5699.2
654.000                     5860
655.000                     5654.1
656.000                     5662
657.000                     5667.3
658.000                     5719.4
659.000                     5639.7
660.000                     5601.3
661.000                     5766
662.000                     5658.8
663.000                     5613.9
664.000                     5799.5
665.000                     5728.5
666.000                     5581.2
667.000                     5757
668.000                     5700.6
669.000                     5717.6
670.000                     5685.3
671.000                     5724.3
672.000                     5758.1
673.000                     5657.6
674.000                     5819.9
675.000                     5621.6
676.000                     5821.7
677.000                     5745.6
678.000                     5661.7
679.000                     5773.5
680.000                     5697
681.000                     5810.8
682.000                     5687
683.000                     5686.5
684.000                     5682.6
685.000                     5742.8
686.000                     5653.5
687.000                     5805.8
688.000                     5653.7
689.000                     5667.4
690.000                     5672.8
691.000                     5765.2
692.000                     5707.4
693.000                     5792.1
694.000                     5854.1
695.000                     5925
696.000                     5924.1
697.000                     5888.5
698.000                     5936.2
699.000                     5904.3
700.000                     5892.4
701.000                     5895.5
702.000                     5725.5
703.000                     5772.4
704.000                     5652.8
705.000                     5631.3
706.000                     5487.8
707.000                     5460.5
708.000                     5304.3
709.000                     5307.2
710.000                     5258.7
711.000                     5178.4
712.000                     4996
713.000                     5172.8
714.000                     5188.5
715.000                     5352.7
716.000                     5391.1
717.000                     5492
718.000                     5901.9
719.000                     7953.7
720.000                    12172
721.000                    13084.4
722.000                     8904
723.000                     5958.6
724.000                     5215
725.000                     5060.9
726.000                     4925.3
727.000                     4949.9
728.000                     5081.5
729.000                     5478.4
730.000                     5439.7
731.000                     5341.4
732.000                     5052.9
733.000                     4817.1
734.000                     4737.4
735.000                     4759.5
736.000                     4625.4
737.000                     4658.5
738.000                     4703
739.000                     4788.2
740.000                     4717.6
741.000                     4599.6
742.000                     4653.3
743.000                     4684.5
744.000                     4566.2
745.000                     4598.4
746.000                     4778.1
747.000                     4731.5
748.000                     4626
749.000                     4738.4
750.000                     4687.3
751.000                     4688.6
752.000                     4605.5
753.000                     4622.3
754.000                     4728.9
755.000                     4750.3
756.000                     4668.1
757.000                     4488.6
758.000                     4741.1
759.000                     4568.1
760.000                     4592.6
761.000                     4728.6
762.000                     4623.7
763.000                     4565.4
764.000                     4652.9
765.000                     4736.7
766.000                     4670.4
767.000                     4648.6
768.000                     4656.6
769.000                     4674.6
770.000                     4761.5
771.000                     4548.9
772.000                     4605.3
773.000                     4711.6
774.000                     4749.3
775.000                     4684.3
776.000                     4568.6
777.000                     4742
778.000                     4589.3
779.000                     4655.5
780.000                     4720.1
781.000                     4723.9
782.000                     4703.2
783.000                     4749.3
784.000                     4635.1
785.000                     4737.1
786.000                     4688.5
787.000                     4663.4
788.000                     4614.1
789.000                     4711.8
790.000                     4557.6
791.000                     4633.2
792.000                     4748.7
793.000                     4733.2
794.000                     4700.5
795.000                     4789.8
796.000                     4729.2
797.000                     4653
798.000                     4728.5
799.000                     4689.8
800.000                     4774.6
801.000                     4604.6
802.000                     4769
803.000                     4774.7
804.000                     4691.4
805.000                     4736.8
806.000                     4647.2
807.000                     4677.4
808.000                     4791
809.000                     4664.5
810.000                     4716.3
811.000                     4655
812.000                     4787.1
813.000                     4890.7
814.000                     4634.2
815.000                     4672.8
816.000                     4746.6
817.000                     4736.9
818.000                     4701.8
819.000                     4806
820.000                     4763.8
821.000                     4831.5
822.000                     4757.3
823.000                     4660.1
824.000                     4763.6
825.000                     4749.4
826.000                     4818.1
827.000                     4746.5
828.000                     4832.1
829.000                     4803.1
830.000                     4797.1
831.000                     4931.9
832.000                     4681.4
833.000                     4768.3
834.000                     4779
835.000                     4799.4
836.000                     4763.2
837.000                     4773.8
838.000                     4805.2
839.000                     4867.1
840.000                     4910.5
841.000                     4829.8
842.000                     4719.9
843.000                     4820.7
844.000                     4852.8
845.000                     4795.3
846.000                     4817.2
847.000                     4874.8
848.000                     4890.6
849.000                     4947.8
850.000                     4908.2
851.000                     4806.5
852.000                     4862.9
853.000                     4994.9
854.000                     4948.3
855.000                     4940.7
856.000                     4902.5
857.000                     4882
858.000                     4868
859.000                     4835.4
860.000                     4908.7
861.000                     4951
862.000                     4947.4
863.000                     4893.7
864.000                     4829.9
865.000                     4915.5
866.000                     4912.3
867.000                     5016.4
868.000                     4864.9
869.000                     4906.3
870.000                     5028.2
871.000                     4908.3
872.000                     4972.6
873.000                     4947.6
874.000                     4963.7
875.000                     5003.6
876.000                     4930.9
877.000                     5088.4
878.000                     4989.4
879.000                     5180.2
880.000                     5127.2
881.000                     4892.9
882.000                     4884.2
883.000                     4918.9
884.000                     5046.7
885.000                     5043.6
886.000                     5033.3
887.000                     5110.1
888.000                     5084.2
889.000                     5152.8
890.000                     5077.3
891.000                     5078.4
892.000                     5068.4
893.000                     5149.5
894.000                     5108.7
895.000                     5141.7
896.000                     5090.3
897.000                     5157.5
898.000                     5173.8
899.000                     5135.8
900.000                     5261.3
901.000                     5264.3
902.000                     5275.2
903.000                     5290.9
904.000                     5215.2
905.000                     5191.7
906.000                     5222
907.000                     5317.4
908.000                     5280.1
909.000                     5297.8
910.000                     5330.9
911.000                     5315.2
912.000                     5334.2
913.000                     5357.6
914.000                     5249.7
915.000                     5344.9
916.000                     5271.7
917.000                     5243.6
918.000                     5185.7
919.000                     5164.4
920.000                     5252.3
921.000                     5125.5
922.000                     5108.6
923.000                     5112.4
924.000                     5202.9
925.000                     5106.9
926.000                     5214.2
927.000                     5317.3
928.000                     5295.6
929.000                     5378.1
930.000                     5385.7
931.000                     5613
932.000                     5603.5
933.000                     5593.6
934.000                     5780.4
935.000                     5657.6
936.000                     5709.7
937.000                     5808.1
938.000                     5835.1
939.000                     5786.2
940.000                     5773.3
941.000                     5838.7
942.000                     5792.9
943.000                     5730.9
944.000                     5665
945.000                     5507
946.000                     5237.3
947.000                     5143.5
948.000                     4930
949.000                     4844.9
950.000                     4509.6
951.000                     4280.3
952.000                     4140.2
953.000                     3907.3
954.000                     3710.6
955.000                     3619.6
956.000                     3477.6
957.000                     3410
958.000                     3572.2
959.000                     3562.7
960.000                     3677.4
961.000                     3847.6
962.000                     4180.1
963.000                     4417.6
964.000                     4619.6
965.000                     5762.5
966.000                     8275.1
967.000                    12749.9
968.000                    20217.7
969.000                    23099.3
970.000                    10442.1
971.000                     2869.2
972.000                     2061.8
973.000                     1848.5
974.000                     1930.5
975.000                     2056.9
976.000                     2550
977.000                     3197.5
978.000                     3125
979.000                     2445.5
980.000                     1727.5
981.000                     1126.4
982.000                      985.6000
983.000                      975.3000
984.000                      938.2000
985.000                      977.9000
986.000                     1029.6
987.000                     1004.3
988.000                     1053.6
989.000                      992.3000
990.000                      931.1000
991.000                      882.2000
992.000                      810.4000
993.000                      827.4000
994.000                      769.0000
995.000                      778.7000
996.000                      801.5000
997.000                      753.3000
998.000                      770.0000
999.000                      730.6000
1000.000                     763.5000
1001.000                     724.1000
1002.000                     715.7000
1003.000                     713.8000
1004.000                     710.3000
1005.000                     717.7000
1006.000                     703.2000
1007.000                     724.4000
1008.000                     708.5000
1009.000                     732.5000
1010.000                     725.1000
1011.000                     822.4000
1012.000                     815.1000
1013.000                     780.9000
1014.000                     789.6000
1015.000                     790.3000
1016.000                     751.1000
1017.000                     732.6000
1018.000                     725.0000
1019.000                     718.6000
1020.000                     637.5000
1021.000                     601.9000
1022.000                     630.0000
1023.000                     647.2000
1024.000                     633.8000
1025.000                     647.0000
1026.000                     636.5000
1027.000                     631.1000
1028.000                     632.4000
1029.000                     623.7000
1030.000                     631.3000
1031.000                     597.5000
1032.000                     585.9000
1033.000                     638.7000
1034.000                     656.0000
1035.000                     607.9000
1036.000                     613.1000
1037.000                     614.6000
1038.000                     626.7000
1039.000                     566.5000
1040.000                     619.3000
1041.000                     663.2000
1042.000                     585.9000
1043.000                     623.2000
1044.000                     585.9000
1045.000                     600.4000
1046.000                     595.8000
1047.000                     598.7000
1048.000                     629.2000
1049.000                     630.7000
1050.000                     601.3000
1051.000                     609.8000
1052.000                     574.4000
1053.000                     594.6000
1054.000                     590.4000
1055.000                     581.8000
1056.000                     583.0000
1057.000                     581.3000
1058.000                     626.1000
1059.000                     574.8000
1060.000                     576.8000
1061.000                     588.0000
1062.000                     610.6000
1063.000                     615.9000
1064.000                     606.1000
1065.000                     606.8000
1066.000                     604.0000
1067.000                     621.3000
1068.000                     596.1000
1069.000                     589.6000
1070.000                     584.5000
1071.000                     599.0000
1072.000                     587.4000
1073.000                     576.3000
1074.000                     578.6000
1075.000                     573.7000
1076.000                     614.3000
1077.000                     574.0000
1078.000                     578.7000
1079.000                     595.0000
1080.000                     570.8000
1081.000                     603.3000
1082.000                     577.6000
1083.000                     591.6000
1084.000                     602.7000
1085.000                     614.3000
1086.000                     612.2000
1087.000                     591.8000
1088.000                     599.5000
1089.000                     580.2000
1090.000                     619.5000
1091.000                     544.5000
1092.000                     586.6000
1093.000                     632.4000
1094.000                     562.5000
1095.000                     598.9000
1096.000                     578.8000
1097.000                     592.4000
1098.000                     606.5000
1099.000                     575.4000
1100.000                     588.9000
1101.000                     579.8000
1102.000                     596.9000
1103.000                     557.8000
1104.000                     608.0000
1105.000                     571.6000
1106.000                     545.5000
1107.000                     581.6000
1108.000                     551.4000
1109.000                     564.6000
1110.000                     578.2000
1111.000                     578.4000
1112.000                     526.6000
1113.000                     552.5000
1114.000                     599.4000
1115.000                     555.5000
1116.000                     546.9000
1117.000                     555.8000
1118.000                     570.8000
1119.000                     592.9000
1120.000                     555.2000
1121.000                     552.9000
1122.000                     541.4000
1123.000                     567.9000
1124.000                     574.5000
1125.000                     582.8000
1126.000                     603.0000
1127.000                     572.1000
1128.000                     565.7000
1129.000                     521.8000
1130.000                     571.2000
1131.000                     583.0000
1132.000                     560.8000
1133.000                     527.3000
1134.000                     542.7000
1135.000                     537.2000
1136.000                     554.4000
1137.000                     551.3000
1138.000                     579.2000
1139.000                     537.2000
1140.000                     574.5000
1141.000                     545.4000
1142.000                     612.4000
1143.000                     552.1000
1144.000                     545.5000
1145.000                     535.7000
1146.000                     528.5000
1147.000                     569.0000
1148.000                     576.1000
1149.000                     587.1000
1150.000                     555.2000
1151.000                     593.4000
1152.000                     577.4000
1153.000                     551.8000
1154.000                     499.7000
1155.000                     546.1000
1156.000                     527.5000
1157.000                     547.4000
1158.000                     568.5000
1159.000                     539.4000
1160.000                     571.3000
1161.000                     538.1000
1162.000                     566.6000
1163.000                     538.5000
1164.000                     577.4000
1165.000                     530.0000
1166.000                     543.8000
1167.000                     574.6000
1168.000                     513.7000
1169.000                     553.7000
1170.000                     546.4000
1171.000                     573.6000
1172.000                     507.8000
1173.000                     507.7000
1174.000                     565.9000
1175.000                     532.0000
1176.000                     530.4000
1177.000                     509.7000
1178.000                     530.8000
1179.000                     490.8000
1180.000                     516.5000
1181.000                     508.0000
1182.000                     532.4000
1183.000                     517.2000
1184.000                     564.0000
1185.000                     531.7000
1186.000                     518.2000
1187.000                     540.4000
1188.000                     515.3000
1189.000                     511.2000
1190.000                     518.6000
1191.000                     496.8000
1192.000                     515.7000
1193.000                     520.3000
1194.000                     529.1000
1195.000                     500.4000
1196.000                     548.1000
1197.000                     519.0000
1198.000                     518.8000
1199.000                     524.8000
1200.000                     562.8000
1201.000                     571.2000
1202.000                     627.4000
1203.000                     583.4000
1204.000                     512.4000
1205.000                     517.3000
1206.000                     509.0000
1207.000                     495.2000
1208.000                     544.2000
1209.000                     494.4000
1210.000                     469.0000
1211.000                     506.9000
1212.000                     475.4000
1213.000                     509.8000
1214.000                     457.1000
1215.000                     496.0000
1216.000                     479.5000
1217.000                     449.6000
1218.000                     475.2000
1219.000                     493.0000
1220.000                     454.3000
1221.000                     482.1000
1222.000                     447.8000
1223.000                     485.0000
1224.000                     440.6000
1225.000                     528.5000
1226.000                     526.0000
1227.000                     597.2000
1228.000                     546.0000
1229.000                     525.6000
1230.000                     481.6000
1231.000                     513.7000
1232.000                     490.7000
1233.000                     531.9000
1234.000                     551.8000
1235.000                     571.2000
1236.000                     626.3000
1237.000                     533.4000
1238.000                     531.7000
1239.000                     507.9000
1240.000                     488.7000
1241.000                     497.6000
1242.000                     485.3000
1243.000                     442.8000
1244.000                     458.7000
1245.000                     416.9000
1246.000                     403.2000
1247.000                     378.7000
1248.000                     372.9000
1249.000                     362.7000
1250.000                     334.4000
1251.000                     307.4000
1252.000                     297.4000
1253.000                     310.5000
1254.000                     268.3000
1255.000                     300.9000
1256.000                     291.5000
1257.000                     259.7000
1258.000                     265.8000
1259.000                     272.2000
1260.000                     248.6000