File: SS_Graphit33/XPS--2_1-C1s.txt
# Transition                      C 1s
# Notes
# Creation Comment
# Energy Mode                     KE
# Start Energy in eV              957
# End Energy in eV                991
# Energy Step in eV               0.1
# Number Of Sweeps                3
# Dwell Time per Sweep in s       0.3
# Analyser Mode                   CAE
# Pass Energy in eV/Retard Ratio  25
# Magnification                   high
# Divide Voltages By 10           off
# Excitation Source               Mg Ka 1253.6 eV normal
# Excitation Energy in eV         1253.6
# Analyser Workfunction in eV     4.5
# Entrance Slit                   6 x 12 mm
# Exit Slit                       5 x 11 mm
#
#
# Kinetic Energy in eV         Counts
# --------------------         ------
957.000                     2594.25
957.100                     2683.5
957.200                     2690.75
957.300                     2654.25
957.400                     2678.75
957.500                     2644.75
957.600                     2654
957.700                     2724.5
957.800                     2741.25
957.900                     2692.5
958.000                     2764.5
958.100                     2688.75
958.200                     2646.75
958.300                     2658.25
958.400                     2703.5
958.500                     2809.5
958.600                     2826
958.700                     2771.75
958.800                     2766.5
958.900                     2832.25
959.000                     2753.75
959.100                     2754.5
959.200                     2895.75
959.300                     2855
959.400                     2824.25
959.500                     2826
959.600                     2798
959.700                     2833.25
959.800                     2831.75
959.900                     2875.75
960.000                     2811.75
960.100                     2859.5
960.200                     2782.5
960.300                     2796.75
960.400                     2818.25
960.500                     2831.5
960.600                     2904.75
960.700                     2870.5
960.800                     2884.75
960.900                     2947.75
961.000                     2976
961.100                     2993
961.200                     3031.5
961.300                     3009
961.400                     2989.25
961.500                     3111.75
961.600                     3140.75
961.700                     3161.75
961.800                     3219.25
961.900                     3241.5
962.000                     3305.75
962.100                     3241.25
962.200                     3232
962.300                     3332.5
962.400                     3294.25
962.500                     3275.75
962.600                     3331.25
962.700                     3395.75
962.800                     3381
962.900                     3238
963.000                     3323.75
963.100                     3370.25
963.200                     3472.25
963.300                     3428.25
963.400                     3309.5
963.500                     3355
963.600                     3363.25
963.700                     3369.5
963.800                     3382.25
963.900                     3395
964.000                     3526.25
964.100                     3455.5
964.200                     3505
964.300                     3635.25
964.400                     3575.5
964.500                     3569.75
964.600                     3726
964.700                     3769.5
964.800                     3931
964.900                     3988.75
965.000                     4042
965.100                     4067.75
965.200                     4275
965.300                     4249
965.400                     4504.5
965.500                     4601.5
965.600                     4827
965.700                     4962.25
965.800                     5090.5
965.900                     5400.75
966.000                     5677.75
966.100                     5908.5
966.200                     6050
966.300                     6417.25
966.400                     6794.5
966.500                     7226.5
966.600                     7692.25
966.700                     7969
966.800                     8368.75
966.900                     8697.5
967.000                     9073
967.100                     9414.25
967.200                     9611.75
967.300                     9838
967.400                     9875
967.500                    10073.5
967.600                    10232.2
967.700                    10700
967.800                    11003.8
967.900                    11458.8
968.000                    12270
968.100                    13179.8
968.200                    14385.2
968.300                    15769.8
968.400                    17527
968.500                    19073
968.600                    20676.5
968.700                    22490.5
968.800                    23504
968.900                    24611.8
969.000                    25265.2
969.100                    25190
969.200                    23965.5
969.300                    22247
969.400                    20418.2
969.500                    17673
969.600                    15023.2
969.700                    12419.2
969.800                    10138.5
969.900                     8065.5
970.000                     6545.75
970.100                     5264.75
970.200                     4417.25
970.300                     3739.5
970.400                     3250.25
970.500                     2963
970.600                     2649.25
970.700                     2326
970.800                     2194.75
970.900                     2204
971.000                     2105.25
971.100                     1937.25
971.200                     1852
971.300                     1771
971.400                     1740.5
971.500                     1740
971.600                     1650.25
971.700                     1598.25
971.800                     1584.5
971.900                     1595.5
972.000                     1572.75
972.100                     1552.75
972.200                     1522
972.300                     1448.5
972.400                     1429.25
972.500                     1488.25
972.600                     1512.75
972.700                     1471.25
972.800                     1487.75
972.900                     1475.5
973.000                     1422.75
973.100                     1434
973.200                     1439
973.300                     1483
973.400                     1473.25
973.500                     1506
973.600                     1556.75
973.700                     1598.75
973.800                     1513.5
973.900                     1529
974.000                     1572.5
974.100                     1530
974.200                     1488.75
974.300                     1531.25
974.400                     1470
974.500                     1571.25
974.600                     1549
974.700                     1533.5
974.800                     1591
974.900                     1583
975.000                     1580
975.100                     1589.75
975.200                     1594
975.300                     1592
975.400                     1587.75
975.500                     1658.25
975.600                     1651.5
975.700                     1729.75
975.800                     1699.75
975.900                     1749.25
976.000                     1761.5
976.100                     1724.25
976.200                     1791.5
976.300                     1842.5
976.400                     1912.75
976.500                     1976
976.600                     2049.25
976.700                     2196
976.800                     2363.75
976.900                     2505
977.000                     2702.25
977.100                     2739
977.200                     2772.25
977.300                     2914.5
977.400                     2963.25
977.500                     2961.5
977.600                     2997.25
977.700                     2891
977.800                     2769.5
977.900                     2592.75
978.000                     2542.25
978.100                     2402.5
978.200                     2282.25
978.300                     2184
978.400                     2120.5
978.500                     2056.25
978.600                     2030
978.700                     2046.75
978.800                     2027.25
978.900                     2103.25
979.000                     2106.5
979.100                     2125.5
979.200                     2131
979.300                     2104.75
979.400                     2041.25
979.500                     2042.75
979.600                     1971
979.700                     1881
979.800                     1722.5
979.900                     1671.25
980.000                     1503.75
980.100                     1386.25
980.200                     1318.5
980.300                     1141
980.400                     1050.25
980.500                      971.7500
980.600                      992.5000
980.700                      942.7500
980.800                      891.0000
980.900                      880.7500
981.000                      840.5000
981.100                      871.5000
981.200                      825.7500
981.300                      821.5000
981.400                      799.5000
981.500                      816.0000
981.600                      794.2500
981.700                      773.5000
981.800                      793.7500
981.900                      762.5000
982.000                      765.5000
982.100                      760.7500
982.200                      763.7500
982.300                      783.0000
982.400                      780.2500
982.500                      776.2500
982.600                      758.5000
982.700                      770.2500
982.800                      756.0000
982.900                      791.0000
983.000                      770.0000
983.100                      757.2500
983.200                      773.7500
983.300                      757.2500
983.400                      767.5000
983.500                      749.0000
983.600                      747.2500
983.700                      779.5000
983.800                      812.5000
983.900                      784.2500
984.000                      775.7500
984.100                      784.7500
984.200                      751.5000
984.300                      761.2500
984.400                      783.2500
984.500                      781.0000
984.600                      772.7500
984.700                      783.5000
984.800                      798.2500
984.900                      809.7500
985.000                      803.7500
985.100                      816.5000
985.200                      833.7500
985.300                      779.0000
985.400                      772.5000
985.500                      841.0000
985.600                      816.2500
985.700                      893.0000
985.800                      844.2500
985.900                      825.0000
986.000                      819.0000
986.100                      829.5000
986.200                      836.5000
986.300                      791.5000
986.400                      892.7500
986.500                      853.2500
986.600                      808.5000
986.700                      863.5000
986.800                      843.0000
986.900                      866.2500
987.000                      857.7500
987.100                      816.7500
987.200                      804.0000
987.300                      789.0000
987.400                      791.2500
987.500                      781.0000
987.600                      803.2500
987.700                      759.7500
987.800                      773.0000
987.900                      805.0000
988.000                      794.7500
988.100                      745.2500
988.200                      779.5000
988.300                      766.2500
988.400                      728.0000
988.500                      803.2500
988.600                      837.0000
988.700                      736.5000
988.800                      805.0000
988.900                      780.2500
989.000                      786.2500
989.100                      758.0000
989.200                      812.0000
989.300                      759.7500
989.400                      770.2500
989.500                      774.5000
989.600                      781.5000
989.700                      791.5000
989.800                      763.7500
989.900                      769.5000
990.000                      706.5000
990.100                      733.2500
990.200                      712.0000
990.300                      751.5000
990.400                      742.7500
990.500                      701.5000
990.600                      697.5000
990.700                      725.7500
990.800                      739.0000
990.900                      726.5000
991.000                      735.7500