File: AbuDhabi_data/XPS_UPS_data/LuncoSimulant_LHS-1_powder/XPS--14_Cutoff High.txt
# Transition
# Notes
# Creation Comment
# Energy Mode                     KE
# Start Energy in eV              10
# End Energy in eV                33
# Energy Step in eV               0.05
# Number Of Sweeps                1
# Dwell Time per Sweep in s       0.2
# Analyser Mode                   CAE
# Pass Energy in eV/Retard Ratio  5
# Magnification                   high
# Divide Voltages By 10           on
# Excitation Source               Mg Ka 1253.6 eV normal
# Excitation Energy in eV         1253.6
# Analyser Workfunction in eV     4.5
# Entrance Slit                   6 x 12 mm
# Exit Slit                       5 x 11 mm
#
#
# Kinetic Energy in eV         Counts
# --------------------         ------
10.000                    138754
10.050                    136556
10.100                    134236
10.150                    132220
10.200                    130783
10.250                    128414
10.300                    125559
10.350                    122918
10.400                    120832
10.450                    118696
10.500                    116824
10.550                    115176
10.600                    113036
10.650                    112047
10.700                    109881
10.750                    108865
10.800                    107260
10.850                    105782
10.900                    104572
10.950                    103104
11.000                    101710
11.050                    101136
11.100                     99818
11.150                     98680.9
11.200                     97483.5
11.250                     96912.7
11.300                     95641
11.350                     94698.9
11.400                     94400.9
11.450                     93638.8
11.500                     92841.2
11.550                     92026.3
11.600                     91594
11.650                     90617.5
11.700                     90206.7
11.750                     90050.9
11.800                     88740.9
11.850                     87832.1
11.900                     87144.2
11.950                     86444.5
12.000                     85316.3
12.050                     85206
12.100                     84455.6
12.150                     83870.7
12.200                     83658.3
12.250                     82768.7
12.300                     82325.8
12.350                     81456.1
12.400                     81071.4
12.450                     81246.4
12.500                     80865.3
12.550                     80509.7
12.600                     80051.4
12.650                     79475.3
12.700                     79535.4
12.750                     79041.9
12.800                     78788.1
12.850                     78375.7
12.900                     78259.2
12.950                     78073.7
13.000                     78156.9
13.050                     78011.3
13.100                     78187.9
13.150                     78035.4
13.200                     78183.9
13.250                     78115.7
13.300                     78252.6
13.350                     79183.8
13.400                     79594.3
13.450                     79800.5
13.500                     80994.7
13.550                     81461.9
13.600                     82611.6
13.650                     83916.8
13.700                     85895.8
13.750                     88127.8
13.800                     91181.5
13.850                     95982.6
13.900                    101898
13.950                    110692
14.000                    121337
14.050                    133870
14.100                    147028
14.150                    159407
14.200                    168996
14.250                    177392
14.300                    183740
14.350                    188207
14.400                    191833
14.450                    193048
14.500                    193252
14.550                    192932
14.600                    192466
14.650                    191623
14.700                    190372
14.750                    189025
14.800                    187382
14.850                    185448
14.900                    183037
14.950                    181015
15.000                    178856
15.050                    176058
15.100                    174517
15.150                    172117
15.200                    169254
15.250                    166240
15.300                    163809
15.350                    161353
15.400                    158485
15.450                    155473
15.500                    153414
15.550                    149708
15.600                    146939
15.650                    143900
15.700                    140672
15.750                    138052
15.800                    134909
15.850                    131906
15.900                    128489
15.950                    126227
16.000                    123017
16.050                    120566
16.100                    117294
16.150                    115269
16.200                    112879
16.250                    110043
16.300                    107478
16.350                    105052
16.400                    102074
16.450                     99959.7
16.500                     97405.4
16.550                     94678.5
16.600                     93513.4
16.650                     91129.6
16.700                     89129.7
16.750                     86782.5
16.800                     85007.3
16.850                     83103.6
16.900                     80601.6
16.950                     78737.8
17.000                     77305.7
17.050                     75354
17.100                     73833
17.150                     72418.4
17.200                     70579.8
17.250                     68897.1
17.300                     66623.4
17.350                     65698.1
17.400                     64369
17.450                     62781.8
17.500                     61913.2
17.550                     60410.9
17.600                     59261.3
17.650                     57617.2
17.700                     55994.5
17.750                     55239
17.800                     53880.4
17.850                     52896.6
17.900                     51709.7
17.950                     50452.8
18.000                     49482.1
18.050                     48850.4
18.100                     48032.8
18.150                     46559.8
18.200                     45885.4
18.250                     44866.9
18.300                     43993
18.350                     42923.2
18.400                     42098.5
18.450                     41363.5
18.500                     40955.6
18.550                     39783.6
18.600                     39107.1
18.650                     38414.3
18.700                     37671.4
18.750                     36904.9
18.800                     36029.5
18.850                     35578.4
18.900                     34657.1
18.950                     33929.9
19.000                     33300.1
19.050                     33015.1
19.100                     32137.1
19.150                     31877.3
19.200                     31002.4
19.250                     30380.5
19.300                     29628.7
19.350                     29253.6
19.400                     28628.3
19.450                     28171
19.500                     27453.7
19.550                     27110.7
19.600                     26922
19.650                     26426.8
19.700                     25943.1
19.750                     25402.2
19.800                     24929.4
19.850                     24490.4
19.900                     24049.8
19.950                     23816
20.000                     23418.8
20.050                     22880.1
20.100                     22536.8
20.150                     22199.5
20.200                     21811.3
20.250                     21543.9
20.300                     21289.5
20.350                     20563.3
20.400                     20315.2
20.450                     20169.4
20.500                     19668.4
20.550                     19311.8
20.600                     19040.6
20.650                     18628.3
20.700                     18325.5
20.750                     17999.1
20.800                     17882.4
20.850                     17711.6
20.900                     17346.9
20.950                     16913.7
21.000                     16772.7
21.050                     16503.3
21.100                     16279.5
21.150                     16143.5
21.200                     15915.2
21.250                     15626.9
21.300                     15226.7
21.350                     14928
21.400                     14937
21.450                     14657.4
21.500                     14476.6
21.550                     14089.8
21.600                     13882.4
21.650                     13637.8
21.700                     13451.2
21.750                     13474.6
21.800                     13082.3
21.850                     12975
21.900                     12810.7
21.950                     12625.1
22.000                     12459.8
22.050                     12339.2
22.100                     12162.9
22.150                     11776.1
22.200                     11779.2
22.250                     11759.2
22.300                     11587.5
22.350                     11314.9
22.400                     11284.7
22.450                     11042.6
22.500                     10848.1
22.550                     10691.1
22.600                     10605
22.650                     10400.2
22.700                     10343.5
22.750                     10247.4
22.800                     10232.6
22.850                      9961.6
22.900                      9768.5
22.950                      9720.6
23.000                      9628.6
23.050                      9561.1
23.100                      9325.2
23.150                      9276.4
23.200                      9263.6
23.250                      9045.9
23.300                      8930.9
23.350                      8725.6
23.400                      8807.5
23.450                      8631.6
23.500                      8412.7
23.550                      8290.3
23.600                      8224.9
23.650                      8104.4
23.700                      8073.2
23.750                      8006.7
23.800                      7943
23.850                      7726
23.900                      7656.2
23.950                      7579.8
24.000                      7413
24.050                      7343.9
24.100                      7310.1
24.150                      7233.4
24.200                      7064.3
24.250                      7065
24.300                      6967.1
24.350                      6909.1
24.400                      6790.7
24.450                      6712.6
24.500                      6667.4
24.550                      6439.9
24.600                      6454.5
24.650                      6399.9
24.700                      6465.8
24.750                      6234.2
24.800                      6122.8
24.850                      6195.8
24.900                      6029
24.950                      6154.6
25.000                      5998.2
25.050                      5983
25.100                      5869.3
25.150                      5931.8
25.200                      5751.3
25.250                      5603.3
25.300                      5641.3
25.350                      5616.1
25.400                      5467.2
25.450                      5391
25.500                      5314.4
25.550                      5188.5
25.600                      5249.6
25.650                      5221.3
25.700                      5117.8
25.750                      5058.8
25.800                      4974.1
25.850                      4849.2
25.900                      4918.7
25.950                      4907.5
26.000                      4881.5
26.050                      4769.5
26.100                      4755.1
26.150                      4746.5
26.200                      4705.2
26.250                      4487.8
26.300                      4480.9
26.350                      4564.1
26.400                      4427
26.450                      4397
26.500                      4375.6
26.550                      4280.4
26.600                      4281.4
26.650                      4272.2
26.700                      4187.1
26.750                      4209.6
26.800                      4128.9
26.850                      4030.5
26.900                      4033.3
26.950                      3965.4
27.000                      3906.6
27.050                      3951
27.100                      3923.5
27.150                      3825.1
27.200                      3808.3
27.250                      3824.8
27.300                      3797
27.350                      3761
27.400                      3782.7
27.450                      3652.5
27.500                      3599.2
27.550                      3599
27.600                      3577.1
27.650                      3552.6
27.700                      3461.7
27.750                      3434.4
27.800                      3340.9
27.850                      3264.1
27.900                      3337.2
27.950                      3312.4
28.000                      3247.6
28.050                      3238.2
28.100                      3172.7
28.150                      3120.6
28.200                      3217.4
28.250                      3154.7
28.300                      3203.6
28.350                      3048.3
28.400                      3027.1
28.450                      3077.1
28.500                      3052.3
28.550                      2864.7
28.600                      2934.1
28.650                      3012.9
28.700                      2928.2
28.750                      2908.8
28.800                      2879.5
28.850                      2795.8
28.900                      2794.3
28.950                      2831.1
29.000                      2720.9
29.050                      2749.2
29.100                      2712.3
29.150                      2643
29.200                      2677.9
29.250                      2660.8
29.300                      2707.5
29.350                      2694
29.400                      2671.1
29.450                      2594.5
29.500                      2563.1
29.550                      2537.7
29.600                      2544.5
29.650                      2495.8
29.700                      2481.2
29.750                      2471.4
29.800                      2462.9
29.850                      2511.3
29.900                      2425
29.950                      2320.7
30.000                      2431.2
30.050                      2376.2
30.100                      2293.4
30.150                      2300.9
30.200                      2317.7
30.250                      2275.4
30.300                      2197.4
30.350                      2258
30.400                      2130.3
30.450                      2206.2
30.500                      2187.8
30.550                      2219.7
30.600                      2158
30.650                      2139.5
30.700                      2074.5
30.750                      2157.8
30.800                      2096.5
30.850                      2160
30.900                      2065.2
30.950                      2076.3
31.000                      2117.4
31.050                      2032.8
31.100                      2021.5
31.150                      2025.6
31.200                      2026.3
31.250                      1976.4
31.300                      1919.4
31.350                      1947.1
31.400                      1933.8
31.450                      1977.7
31.500                      1885.5
31.550                      1921.6
31.600                      1886.8
31.650                      1877.2
31.700                      1761.5
31.750                      1768.5
31.800                      1858.7
31.850                      1796.5
31.900                      1748.3
31.950                      1719.7
32.000                      1767.2
32.050                      1791.9
32.100                      1807.4
32.150                      1763.1
32.200                      1702.7
32.250                      1720.9
32.300                      1674.1
32.350                      1695.1
32.400                      1667.6
32.450                      1634.1
32.500                      1643.7
32.550                      1755.1
32.600                      1659.4
32.650                      1687.5
32.700                      1557.1
32.750                      1593.2
32.800                      1628.1
32.850                      1602.9
32.900                      1574.4
32.950                      1504.7
33.000                      1504.2