File: AbuDhabi_data/XPS_UPS_data/LuncoSimulant_LHS-1_powder/XPS--15_Cutoff_Low.txt
# Transition
# Notes
# Creation Comment
# Energy Mode                     KE
# Start Energy in eV              10
# End Energy in eV                33
# Energy Step in eV               0.05
# Number Of Sweeps                2
# Dwell Time per Sweep in s       0.2
# Analyser Mode                   CAE
# Pass Energy in eV/Retard Ratio  5
# Magnification                   low
# Divide Voltages By 10           off
# Excitation Source               Mg Ka 1253.6 eV normal
# Excitation Energy in eV         1253.6
# Analyser Workfunction in eV     4.5
# Entrance Slit                   6 x 12 mm
# Exit Slit                       5 x 11 mm
#
#
# Kinetic Energy in eV         Counts
# --------------------         ------
10.000                    287558
10.050                    285609
10.100                    286617
10.150                    286167
10.200                    286136
10.250                    287028
10.300                    286531
10.350                    285912
10.400                    286323
10.450                    287204
10.500                    288718
10.550                    288773
10.600                    289359
10.650                    289936
10.700                    290529
10.750                    291038
10.800                    290341
10.850                    291150
10.900                    292146
10.950                    291899
11.000                    292723
11.050                    292013
11.100                    293226
11.150                    292397
11.200                    292323
11.250                    292112
11.300                    292144
11.350                    291350
11.400                    291610
11.450                    290684
11.500                    289963
11.550                    290014
11.600                    290411
11.650                    289117
11.700                    289049
11.750                    289330
11.800                    288906
11.850                    289517
11.900                    288376
11.950                    289475
12.000                    288821
12.050                    288903
12.100                    288812
12.150                    288960
12.200                    290955
12.250                    291267
12.300                    292571
12.350                    293022
12.400                    294431
12.450                    295184
12.500                    295557
12.550                    297024
12.600                    297799
12.650                    299132
12.700                    299652
12.750                    300819
12.800                    302007
12.850                    302984
12.900                    305033
12.950                    306628
13.000                    308389
13.050                    311339
13.100                    314427
13.150                    317131
13.200                    321896
13.250                    326486
13.300                    332868
13.350                    339820
13.400                    348226
13.450                    357754
13.500                    369845
13.550                    383467
13.600                    401175
13.650                    421834
13.700                    448603
13.750                    482730
13.800                    528353
13.850                    588952
13.900                    664579
13.950                    764380
14.000                    867335
14.050                    974437
14.100                   1.08369e+06
14.150                   1.15614e+06
14.200                   1.22516e+06
14.250                   1.27687e+06
14.300                   1.31341e+06
14.350                   1.32619e+06
14.400                   1.34448e+06
14.450                   1.35698e+06
14.500                   1.38208e+06
14.550                   1.37433e+06
14.600                   1.37424e+06
14.650                   1.38545e+06
14.700                   1.39653e+06
14.750                   1.38555e+06
14.800                   1.37363e+06
14.850                   1.37438e+06
14.900                   1.36891e+06
14.950                   1.37139e+06
15.000                   1.3699e+06
15.050                   1.3582e+06
15.100                   1.35826e+06
15.150                   1.352e+06
15.200                   1.33928e+06
15.250                   1.33423e+06
15.300                   1.32344e+06
15.350                   1.31305e+06
15.400                   1.29975e+06
15.450                   1.28565e+06
15.500                   1.28232e+06
15.550                   1.25744e+06
15.600                   1.25173e+06
15.650                   1.22679e+06
15.700                   1.20943e+06
15.750                   1.19675e+06
15.800                   1.17381e+06
15.850                   1.1558e+06
15.900                   1.13671e+06
15.950                   1.11638e+06
16.000                   1.09711e+06
16.050                   1.07649e+06
16.100                   1.05623e+06
16.150                   1.04333e+06
16.200                   1.01749e+06
16.250                    998575
16.300                    979597
16.350                    960433
16.400                    940426
16.450                    924295
16.500                    904293
16.550                    886616
16.600                    868074
16.650                    850566
16.700                    834440
16.750                    816814
16.800                    799158
16.850                    782238
16.900                    766242
16.950                    753447
17.000                    736620
17.050                    721044
17.100                    707003
17.150                    692385
17.200                    677403
17.250                    665153
17.300                    650371
17.350                    637142
17.400                    624763
17.450                    613181
17.500                    600657
17.550                    588098
17.600                    576516
17.650                    565364
17.700                    554752
17.750                    543831
17.800                    532237
17.850                    522627
17.900                    511980
17.950                    502689
18.000                    492974
18.050                    484300
18.100                    474312
18.150                    466192
18.200                    456420
18.250                    448117
18.300                    439542
18.350                    431084
18.400                    422349
18.450                    413658
18.500                    405805
18.550                    398898
18.600                    391954
18.650                    384395
18.700                    377008
18.750                    369453
18.800                    363603
18.850                    355564
18.900                    348954
18.950                    343564
19.000                    336363
19.050                    330098
19.100                    324258
19.150                    317728
19.200                    312017
19.250                    307019
19.300                    300396
19.350                    295416
19.400                    290926
19.450                    285305
19.500                    279821
19.550                    274752
19.600                    269863
19.650                    265834
19.700                    261149
19.750                    256263
19.800                    251334
19.850                    247110
19.900                    242907
19.950                    238730
20.000                    234268
20.050                    229966
20.100                    226774
20.150                    222266
20.200                    218732
20.250                    215032
20.300                    211027
20.350                    207982
20.400                    204324
20.450                    201174
20.500                    196758
20.550                    194198
20.600                    191614
20.650                    187858
20.700                    185096
20.750                    182089
20.800                    178714
20.850                    175822
20.900                    173658
20.950                    170516
21.000                    167584
21.050                    164924
21.100                    162498
21.150                    160859
21.200                    157722
21.250                    155720
21.300                    153094
21.350                    150311
21.400                    148454
21.450                    146291
21.500                    143472
21.550                    141920
21.600                    139218
21.650                    137366
21.700                    135364
21.750                    133089
21.800                    131264
21.850                    129802
21.900                    127685
21.950                    125612
22.000                    123671
22.050                    122396
22.100                    120539
22.150                    118695
22.200                    117188
22.250                    115550
22.300                    114165
22.350                    112034
22.400                    110266
22.450                    109572
22.500                    107593
22.550                    106094
22.600                    104774
22.650                    103499
22.700                    101827
22.750                    100564
22.800                     99008.1
22.850                     97463
22.900                     96241.6
22.950                     94596.9
23.000                     93789.2
23.050                     92264.7
23.100                     91708.7
23.150                     89634.6
23.200                     88550.3
23.250                     87574
23.300                     86823.4
23.350                     85349.3
23.400                     84105.6
23.450                     83433.9
23.500                     81974.3
23.550                     80610.6
23.600                     80158.5
23.650                     78788.2
23.700                     78013.8
23.750                     76980.7
23.800                     76357.1
23.850                     74913
23.900                     74009.9
23.950                     73099.3
24.000                     71845.6
24.050                     71143.5
24.100                     70423
24.150                     69390.3
24.200                     68747.9
24.250                     67558
24.300                     66810.8
24.350                     66434.5
24.400                     65654.1
24.450                     64351.3
24.500                     63508.9
24.550                     62605.7
24.600                     62066.8
24.650                     61416.1
24.700                     60706.8
24.750                     59902.9
24.800                     59041
24.850                     58636.2
24.900                     57881.4
24.950                     57274.2
25.000                     56713.7
25.050                     56028.7
25.100                     55332.1
25.150                     54273.1
25.200                     53665.4
25.250                     53260
25.300                     52570.8
25.350                     51872.2
25.400                     51197.4
25.450                     50567.8
25.500                     50083.7
25.550                     49443.7
25.600                     48892.3
25.650                     48520.1
25.700                     48118
25.750                     47282.5
25.800                     46953.8
25.850                     46079.5
25.900                     45613.1
25.950                     45250.5
26.000                     44750.3
26.050                     44324.3
26.100                     43733.7
26.150                     43430.1
26.200                     42665.7
26.250                     42547.6
26.300                     41986.5
26.350                     41420.8
26.400                     40845.6
26.450                     40221.5
26.500                     40013.2
26.550                     39475
26.600                     39242.7
26.650                     38447.1
26.700                     37992.6
26.750                     37882.7
26.800                     37799.3
26.850                     37171.5
26.900                     36859.7
26.950                     36503.4
27.000                     35864.1
27.050                     35536.4
27.100                     34986.6
27.150                     34865.7
27.200                     34652.2
27.250                     34004.4
27.300                     33629.8
27.350                     33155.2
27.400                     32993.9
27.450                     32595
27.500                     32372
27.550                     31959.6
27.600                     31511.7
27.650                     31429.1
27.700                     31050.1
27.750                     30817.2
27.800                     30315.2
27.850                     30170
27.900                     29789.7
27.950                     29402.2
28.000                     29542
28.050                     29182.8
28.100                     28824.6
28.150                     28436.3
28.200                     28023.4
28.250                     27871.1
28.300                     27596
28.350                     27277.2
28.400                     27126.1
28.450                     26774.2
28.500                     26581.1
28.550                     26347.8
28.600                     26129.9
28.650                     25864.2
28.700                     25556.8
28.750                     25209.7
28.800                     24865.2
28.850                     24835.2
28.900                     24745.3
28.950                     24235.3
29.000                     24207
29.050                     24031.3
29.100                     23825.7
29.150                     23336.3
29.200                     23271.9
29.250                     23133.8
29.300                     22851.8
29.350                     22580.9
29.400                     22442.4
29.450                     22139.4
29.500                     21911.2
29.550                     21784.2
29.600                     21648
29.650                     21294.4
29.700                     21009.4
29.750                     20828.8
29.800                     20792.5
29.850                     20592.1
29.900                     20339.2
29.950                     20218.4
30.000                     20304.9
30.050                     20060.9
30.100                     19825.2
30.150                     19547.3
30.200                     19349.5
30.250                     19296.2
30.300                     19154
30.350                     18890.8
30.400                     18613.5
30.450                     18427.3
30.500                     18100.5
30.550                     18197.8
30.600                     18145.2
30.650                     17880.3
30.700                     18098.6
30.750                     17832.9
30.800                     17711.9
30.850                     17311.7
30.900                     17385.8
30.950                     17206.9
31.000                     16895.3
31.050                     16668.1
31.100                     16634.7
31.150                     16446.1
31.200                     16299.6
31.250                     16357.4
31.300                     16103.3
31.350                     15834.9
31.400                     15808.1
31.450                     15607
31.500                     15640.2
31.550                     15664.9
31.600                     15385
31.650                     15386.2
31.700                     15105.7
31.750                     14949.3
31.800                     14733.7
31.850                     14845.5
31.900                     14495.8
31.950                     14558.4
32.000                     14390.8
32.050                     14231.8
32.100                     14034.2
32.150                     14039.5
32.200                     14038.6
32.250                     13967.9
32.300                     13857.3
32.350                     13485.1
32.400                     13388
32.450                     13259.5
32.500                     13261.6
32.550                     13211.5
32.600                     13358.6
32.650                     13196.4
32.700                     12972.1
32.750                     12805.1
32.800                     12562.5
32.850                     12712.7
32.900                     12535
32.950                     12540.7
33.000                     12474.8