File: AbuDhabi_data/XPS_UPS_data/LuncoSimulant_LHS-1_powder/XPS--1_Wide1.txt
# Transition                      wide
# Notes
# Creation Comment
# Energy Mode                     KE
# Start Energy in eV              149.6
# End Energy in eV                1259.6
# Energy Step in eV               0.5
# Number Of Sweeps                1
# Dwell Time per Sweep in s       0.3
# Analyser Mode                   CAE
# Pass Energy in eV/Retard Ratio  50
# Magnification                   high
# Divide Voltages By 10           off
# Excitation Source               Mg Ka 1253.6 eV normal
# Excitation Energy in eV         1253.6
# Analyser Workfunction in eV     4.5
# Entrance Slit                   6 x 12 mm
# Exit Slit                       5 x 11 mm
#
#
# Kinetic Energy in eV         Counts
# --------------------         ------
149.600                    14884.9
150.600                    14810.1
151.600                    14753.4
152.600                    14655.8
153.600                    14585.9
154.600                    14549.3
155.600                    14617.1
156.600                    14387.3
157.600                    14705.1
158.600                    14249.9
159.600                    14231.9
160.600                    14299.3
161.600                    14273.6
162.600                    14193
163.600                    14170.7
164.600                    14023.5
165.600                    13947.2
166.600                    14009.6
167.600                    13857.1
168.600                    13897.1
169.600                    13714.9
170.600                    13717.5
171.600                    13806.2
172.600                    13814.2
173.600                    13853.8
174.600                    13832.6
175.600                    13707.5
176.600                    13473.7
177.600                    13567.2
178.600                    13614.3
179.600                    13349.4
180.600                    13581.9
181.600                    13311
182.600                    13283.4
183.600                    13084.2
184.600                    13184.1
185.600                    13368.5
186.600                    13083.2
187.600                    13159
188.600                    13113.4
189.600                    12983
190.600                    12959
191.600                    12981.7
192.600                    13009.6
193.600                    12748.2
194.600                    12822.5
195.600                    12871.2
196.600                    12860.1
197.600                    12670
198.600                    12895.9
199.600                    12689.4
200.600                    12748.1
201.600                    12687.5
202.600                    12662
203.600                    12714.9
204.600                    12676.9
205.600                    12672.7
206.600                    12640.4
207.600                    12553.4
208.600                    12518.9
209.600                    12481.2
210.600                    12685.3
211.600                    12461.1
212.600                    12658.1
213.600                    12118.9
214.600                    12351.3
215.600                    12434.2
216.600                    12325.3
217.600                    12367
218.600                    12525.5
219.600                    12303.7
220.600                    12488.1
221.600                    12206.1
222.600                    12095.4
223.600                    12185.1
224.600                    12144.4
225.600                    12254
226.600                    12210
227.600                    12199.5
228.600                    12224.6
229.600                    12404.2
230.600                    12108.3
231.600                    12368.2
232.600                    12302.7
233.600                    12439.9
234.600                    12337.8
235.600                    12281.2
236.600                    12378
237.600                    12239.6
238.600                    12297.3
239.600                    12176.8
240.600                    12182.2
241.600                    12336.5
242.600                    12114
243.600                    11963.8
244.600                    12050.4
245.600                    11971.6
246.600                    12169.3
247.600                    12073.6
248.600                    12068.3
249.600                    12035
250.600                    12029.4
251.600                    12162.1
252.600                    12246.6
253.600                    12435.9
254.600                    12162.2
255.600                    12149.7
256.600                    12073.6
257.600                    11989.3
258.600                    12041.4
259.600                    11931.7
260.600                    11873.8
261.600                    11598
262.600                    11569.1
263.600                    11322.7
264.600                    11159.6
265.600                    11166.2
266.600                    11112
267.600                    10899.8
268.600                    10917.9
269.600                    11058.8
270.600                    10605.8
271.600                    10765.8
272.600                    10736.2
273.600                    10645
274.600                    10487.9
275.600                    10554.4
276.600                    10576.3
277.600                    10411.1
278.600                    10428.4
279.600                    10619.6
280.600                    10383.3
281.600                    10514.7
282.600                    10590.8
283.600                    10482.5
284.600                    10574.7
285.600                    10586.9
286.600                    10547.8
287.600                    10463.1
288.600                    10361.1
289.600                    10444
290.600                    10132
291.600                    10362.1
292.600                    10248
293.600                    10320.7
294.600                    10374.9
295.600                    10279.3
296.600                    10153.7
297.600                    10398.8
298.600                     9983.6
299.600                    10281.9
300.600                    10204.9
301.600                    10188.9
302.600                    10242.9
303.600                    10132
304.600                    10269.1
305.600                     9970
306.600                    10172.1
307.600                    10227.2
308.600                    10070
309.600                    10156.3
310.600                    10193.5
311.600                    10064.5
312.600                    10124.9
313.600                    10111.2
314.600                    10184.8
315.600                    10317.1
316.600                     9984.5
317.600                     9952.7
318.600                     9970.1
319.600                    10069.4
320.600                    10008.1
321.600                    10196.9
322.600                    10055.3
323.600                    10090.5
324.600                    10047.6
325.600                    10055.1
326.600                     9867.9
327.600                     9982
328.600                     9847.4
329.600                    10089.8
330.600                     9995
331.600                     9926.3
332.600                     9944.6
333.600                     9888.3
334.600                     9890.4
335.600                     9981.3
336.600                     9885.7
337.600                    10000.7
338.600                     9882.9
339.600                     9793.5
340.600                    10090.1
341.600                     9875.4
342.600                     9778.9
343.600                     9950.4
344.600                     9820.1
345.600                     9964
346.600                     9716.2
347.600                     9753.3
348.600                     9768.4
349.600                     9831.6
350.600                     9811.5
351.600                     9845.2
352.600                     9681.8
353.600                     9885.6
354.600                     9711.7
355.600                    10089
356.600                     9797.2
357.600                     9715
358.600                     9756.4
359.600                     9698
360.600                     9772
361.600                     9717.1
362.600                     9784.1
363.600                     9775.8
364.600                     9862.9
365.600                     9761.3
366.600                     9815.2
367.600                     9811.4
368.600                     9941.8
369.600                     9837.4
370.600                     9719
371.600                     9686.4
372.600                     9581.3
373.600                     9901.1
374.600                     9842.3
375.600                     9715
376.600                     9738.8
377.600                     9702.1
378.600                     9792.7
379.600                     9648.5
380.600                     9465.1
381.600                     9505
382.600                     9470.7
383.600                     9446.9
384.600                     9475
385.600                     9606.1
386.600                     9525.4
387.600                     9439.7
388.600                     9489.2
389.600                     9489.2
390.600                     9528.5
391.600                     9328.5
392.600                     9473.5
393.600                     9503.3
394.600                     9464.3
395.600                     9528.7
396.600                     9342.8
397.600                     9433.2
398.600                     9316.7
399.600                     9315.1
400.600                     9210.7
401.600                     9370.9
402.600                     9346.3
403.600                     9414.2
404.600                     9440.1
405.600                     9374.5
406.600                     9413.5
407.600                     9350.3
408.600                     9396.2
409.600                     9257.5
410.600                     9383.4
411.600                     9296.1
412.600                     9408.8
413.600                     9367.3
414.600                     9429.7
415.600                     9348.1
416.600                     9317.1
417.600                     9161.2
418.600                     9289.2
419.600                     9439.3
420.600                     9214.9
421.600                     9325.5
422.600                     9273.1
423.600                     9207.6
424.600                     9273.8
425.600                     9046.7
426.600                     9319.9
427.600                     9089.3
428.600                     9424.5
429.600                     9266.1
430.600                     9251.6
431.600                     9103.3
432.600                     9293.5
433.600                     9264.8
434.600                     9309.6
435.600                     9295.9
436.600                     9381.7
437.600                     9346.9
438.600                     9195
439.600                     9330.8
440.600                     9336
441.600                     9355.2
442.600                     9456.7
443.600                     9315.9
444.600                     9310.8
445.600                     9325.8
446.600                     9399.9
447.600                     9313.1
448.600                     9370
449.600                     9280.3
450.600                     9315
451.600                     9315.3
452.600                     9513.7
453.600                     9366.1
454.600                     9248.9
455.600                     9349.8
456.600                     9420
457.600                     9500.6
458.600                     9472.4
459.600                     9515
460.600                     9411
461.600                     9531.2
462.600                     9546.7
463.600                     9458.2
464.600                     9382.3
465.600                     9356.2
466.600                     9488.6
467.600                     9225
468.600                     9164
469.600                     9251.5
470.600                     9188.7
471.600                     9206.5
472.600                     9342.4
473.600                     9449.9
474.600                     9604.2
475.600                     9615.3
476.600                     9639.3
477.600                     9732.6
478.600                     9642.2
479.600                     9780.1
480.600                     9512.6
481.600                     9357.7
482.600                     9305.9
483.600                     9202.6
484.600                     9146.7
485.600                     8969.7
486.600                     8900.8
487.600                     8591
488.600                     8488.1
489.600                     8415.6
490.600                     8552.5
491.600                     8548.3
492.600                     8398
493.600                     8512.3
494.600                     8775.6
495.600                     8992.7
496.600                     9266.5
497.600                     9654.5
498.600                    10369
499.600                    10547.3
500.600                    10298.5
501.600                     9967.7
502.600                     9500.7
503.600                     9008.7
504.600                     8949.8
505.600                     8434.9
506.600                     8137.1
507.600                     7893.7
508.600                     7687.5
509.600                     7388.6
510.600                     7156.2
511.600                     6983.5
512.600                     6717.8
513.600                     6672.4
514.600                     6658.8
515.600                     6497.4
516.600                     6297.5
517.600                     6368
518.600                     6309
519.600                     6375.6
520.600                     6245.2
521.600                     6274
522.600                     6306.1
523.600                     6170.5
524.600                     6080.7
525.600                     6137.6
526.600                     5995.4
527.600                     6068.1
528.600                     6122.3
529.600                     6040.7
530.600                     6058.1
531.600                     6122.9
532.600                     6007.2
533.600                     6182.3
534.600                     6100.5
535.600                     6066.8
536.600                     5861.3
537.600                     5743.1
538.600                     5826.1
539.600                     5797
540.600                     5779.5
541.600                     5718.9
542.600                     5729.9
543.600                     5824.9
544.600                     5618.5
545.600                     5631.8
546.600                     5511.6
547.600                     5435.6
548.600                     5508.7
549.600                     5504.6
550.600                     5582.3
551.600                     5523.9
552.600                     5555.8
553.600                     5448.8
554.600                     5490.6
555.600                     5474.4
556.600                     5456
557.600                     5428.5
558.600                     5543.6
559.600                     5503.3
560.600                     5310.3
561.600                     5409.1
562.600                     5398.2
563.600                     5537.7
564.600                     5317.8
565.600                     5376.8
566.600                     5415.1
567.600                     5424.9
568.600                     5278.1
569.600                     5354.8
570.600                     5361.1
571.600                     5324.6
572.600                     5375.3
573.600                     5412
574.600                     5244.1
575.600                     5265
576.600                     5381.4
577.600                     5203.9
578.600                     5278.1
579.600                     5263.5
580.600                     5389.9
581.600                     5226.5
582.600                     5256.5
583.600                     5303.6
584.600                     5230.6
585.600                     5268.8
586.600                     5368.5
587.600                     5183.6
588.600                     5251.9
589.600                     5168.2
590.600                     5244.7
591.600                     5116.4
592.600                     5064.5
593.600                     5170.3
594.600                     5126.6
595.600                     5106.6
596.600                     5083.3
597.600                     4976.4
598.600                     5083.6
599.600                     5004.7
600.600                     4949.2
601.600                     5060.6
602.600                     4833.5
603.600                     5054.5
604.600                     4924.6
605.600                     4909.2
606.600                     5002.5
607.600                     4975
608.600                     5003
609.600                     4987.3
610.600                     4834.5
611.600                     4901.3
612.600                     4802.7
613.600                     4856.8
614.600                     4957.3
615.600                     4985
616.600                     4861.9
617.600                     4895.8
618.600                     4929.2
619.600                     4882.1
620.600                     4796.7
621.600                     4848.4
622.600                     4918.4
623.600                     4989.1
624.600                     4947.4
625.600                     4853
626.600                     4808.1
627.600                     4853.1
628.600                     4982.8
629.600                     4841
630.600                     4948.8
631.600                     4809.5
632.600                     4769.3
633.600                     4929
634.600                     4889.9
635.600                     4948
636.600                     4870
637.600                     4828.9
638.600                     4808.5
639.600                     4795.4
640.600                     4919.6
641.600                     4864.6
642.600                     4864.3
643.600                     4791.6
644.600                     4869.5
645.600                     4785.9
646.600                     4701.8
647.600                     4682.6
648.600                     4726.4
649.600                     4607.8
650.600                     4580.6
651.600                     4533.8
652.600                     4673.6
653.600                     4635.4
654.600                     4655.7
655.600                     4608.1
656.600                     4578.8
657.600                     4603.7
658.600                     4615.1
659.600                     4429.6
660.600                     4573.4
661.600                     4478.1
662.600                     4703.8
663.600                     4623.1
664.600                     4522.4
665.600                     4523.7
666.600                     4614
667.600                     4527.1
668.600                     4567.1
669.600                     4598.9
670.600                     4554.4
671.600                     4492.8
672.600                     4385.1
673.600                     4433.5
674.600                     4443
675.600                     4494.3
676.600                     4476.8
677.600                     4441.1
678.600                     4409.8
679.600                     4424.3
680.600                     4367.1
681.600                     4401.1
682.600                     4362.5
683.600                     4421.3
684.600                     4485
685.600                     4564.9
686.600                     4585.8
687.600                     4717.1
688.600                     4700.2
689.600                     4740.1
690.600                     4711.6
691.600                     4676.3
692.600                     4683
693.600                     4570.6
694.600                     4474.3
695.600                     4268.3
696.600                     4249.9
697.600                     4122.7
698.600                     4094.7
699.600                     3920
700.600                     3832
701.600                     3645.7
702.600                     3534.5
703.600                     3434.1
704.600                     3323.9
705.600                     3139.4
706.600                     3063.4
707.600                     2942.7
708.600                     3032.2
709.600                     3162.5
710.600                     4222.9
711.600                     6520.6
712.600                     9851.5
713.600                    10215.2
714.600                     7695.3
715.600                     5200.3
716.600                     3830.1
717.600                     3115.2
718.600                     2930.6
719.600                     3066.5
720.600                     3357.3
721.600                     3650.5
722.600                     3579.1
723.600                     3431.1
724.600                     2983.2
725.600                     2711.1
726.600                     2545.3
727.600                     2357.3
728.600                     2489.7
729.600                     2396
730.600                     2394.8
731.600                     2460.3
732.600                     2346
733.600                     2431.2
734.600                     2504.3
735.600                     2360.7
736.600                     2392.4
737.600                     2304.2
738.600                     2358.5
739.600                     2363.5
740.600                     2280.2
741.600                     2313.8
742.600                     2315.4
743.600                     2288.1
744.600                     2312.3
745.600                     2336.2
746.600                     2271.4
747.600                     2286.9
748.600                     2380
749.600                     2359
750.600                     2187.3
751.600                     2319
752.600                     2286.6
753.600                     2293.3
754.600                     2351.1
755.600                     2369.9
756.600                     2296.4
757.600                     2273.1
758.600                     2321.4
759.600                     2304.2
760.600                     2361.8
761.600                     2328.1
762.600                     2271.4
763.600                     2241
764.600                     2261.8
765.600                     2305.5
766.600                     2355.5
767.600                     2206.6
768.600                     2280.6
769.600                     2182.3
770.600                     2223.6
771.600                     2169.8
772.600                     2209.8
773.600                     2282.2
774.600                     2212.4
775.600                     2187.3
776.600                     2157.1
777.600                     2185.9
778.600                     2206.6
779.600                     2154.2
780.600                     2328.8
781.600                     2312.1
782.600                     2255.1
783.600                     2176.4
784.600                     2184.1
785.600                     2357.4
786.600                     2471.1
787.600                     2414.1
788.600                     2160.6
789.600                     2101.1
790.600                     1984.3
791.600                     2004.3
792.600                     2007.1
793.600                     1960
794.600                     2011.7
795.600                     2094.5
796.600                     1950.2
797.600                     2002.6
798.600                     1946.9
799.600                     1960.2
800.600                     1871.5
801.600                     1952.4
802.600                     1951.1
803.600                     1960.7
804.600                     1887.9
805.600                     1942.3
806.600                     1989.8
807.600                     1930.9
808.600                     1909.5
809.600                     1933
810.600                     1930.7
811.600                     1947.8
812.600                     1909.3
813.600                     1824.5
814.600                     1851.3
815.600                     1970.7
816.600                     1871.6
817.600                     1911.4
818.600                     1864.8
819.600                     1862.9
820.600                     1906.3
821.600                     1883.8
822.600                     1816
823.600                     1830.2
824.600                     1965.4
825.600                     1858.7
826.600                     1943
827.600                     1847.5
828.600                     1812.3
829.600                     1853.7
830.600                     1838.1
831.600                     1950.5
832.600                     1888.1
833.600                     1870.9
834.600                     1897.9
835.600                     1864.8
836.600                     1900.7
837.600                     1903.8
838.600                     1833.9
839.600                     1824.4
840.600                     1817.1
841.600                     1867.6
842.600                     1795.5
843.600                     1894.9
844.600                     1888
845.600                     1786.8
846.600                     1848.2
847.600                     1890.7
848.600                     1766.8
849.600                     1754.9
850.600                     1808.2
851.600                     1764
852.600                     1873.5
853.600                     1871.9
854.600                     1833.4
855.600                     1789.3
856.600                     1819.4
857.600                     1824.9
858.600                     1795.6
859.600                     1779.6
860.600                     1817.4
861.600                     1791.3
862.600                     1799.9
863.600                     1850.8
864.600                     1757.1
865.600                     1742.9
866.600                     1813.3
867.600                     1797.3
868.600                     1831.9
869.600                     1835.1
870.600                     1804.5
871.600                     1842
872.600                     1825.5
873.600                     1807.1
874.600                     1752.5
875.600                     1771.6
876.600                     1717.9
877.600                     1681.6
878.600                     1731.4
879.600                     1675.1
880.600                     1667.5
881.600                     1587.9
882.600                     1742.9
883.600                     1600.2
884.600                     1600.4
885.600                     1640.8
886.600                     1609.5
887.600                     1551
888.600                     1594.8
889.600                     1646.9
890.600                     1597.1
891.600                     1611.3
892.600                     1793.6
893.600                     1686.4
894.600                     1703
895.600                     1798.6
896.600                     1771.8
897.600                     1737.4
898.600                     1633.7
899.600                     1621.1
900.600                     1612.8
901.600                     1617.1
902.600                     1553
903.600                     1540.7
904.600                     1615.1
905.600                     1580.7
906.600                     1612.7
907.600                     1565.3
908.600                     1612.6
909.600                     1542
910.600                     1578.6
911.600                     1582.8
912.600                     1635.2
913.600                     1576.8
914.600                     1612.3
915.600                     1561.5
916.600                     1679.1
917.600                     1551.8
918.600                     1607.6
919.600                     1588.9
920.600                     1574.4
921.600                     1597.2
922.600                     1603.5
923.600                     1585.9
924.600                     1543.6
925.600                     1586.9
926.600                     1538.5
927.600                     1612.8
928.600                     1552.9
929.600                     1528.8
930.600                     1543.5
931.600                     1606.7
932.600                     1519.2
933.600                     1522.3
934.600                     1568
935.600                     1559.2
936.600                     1596.9
937.600                     1532.8
938.600                     1541.6
939.600                     1654.2
940.600                     1615.9
941.600                     1615.1
942.600                     1635.3
943.600                     1595.6
944.600                     1553.2
945.600                     1498.4
946.600                     1557.8
947.600                     1551.1
948.600                     1560.1
949.600                     1539.9
950.600                     1557
951.600                     1485.3
952.600                     1519
953.600                     1499
954.600                     1511.1
955.600                     1557.1
956.600                     1574.5
957.600                     1729.4
958.600                     2177.3
959.600                     2432.2
960.600                     2197
961.600                     1764.3
962.600                     1595.9
963.600                     1506.9
964.600                     1555
965.600                     1578.7
966.600                     1601.6
967.600                     1688
968.600                     1656.5
969.600                     1498
970.600                     1463.4
971.600                     1377
972.600                     1381.1
973.600                     1392
974.600                     1410.4
975.600                     1387.7
976.600                     1413.8
977.600                     1385.6
978.600                     1475.7
979.600                     1518.8
980.600                     1527.7
981.600                     1405.6
982.600                     1395.2
983.600                     1336.6
984.600                     1398.8
985.600                     1331.6
986.600                     1326
987.600                     1328.3
988.600                     1466.4
989.600                     1360.6
990.600                     1273.5
991.600                     1384.1
992.600                     1365.5
993.600                     1286.9
994.600                     1299.7
995.600                     1282.1
996.600                     1286.6
997.600                     1284.2
998.600                     1303.7
999.600                     1344
1000.600                    1331
1001.600                    1356.5
1002.600                    1339.6
1003.600                    1333.4
1004.600                    1253.1
1005.600                    1321.3
1006.600                    1274.6
1007.600                    1306.4
1008.600                    1308.2
1009.600                    1283.2
1010.600                    1279.2
1011.600                    1287.7
1012.600                    1272.9
1013.600                    1285.5
1014.600                    1306.1
1015.600                    1306.7
1016.600                    1370.6
1017.600                    1350
1018.600                    1302.6
1019.600                    1341.1
1020.600                    1255.1
1021.600                    1333
1022.600                    1355.1
1023.600                    1332.3
1024.600                    1254.1
1025.600                    1278
1026.600                    1292.9
1027.600                    1293.8
1028.600                    1291.9
1029.600                    1289.9
1030.600                    1292.1
1031.600                    1263.4
1032.600                    1338.4
1033.600                    1306.5
1034.600                    1300.1
1035.600                    1329.6
1036.600                    1238.5
1037.600                    1290.8
1038.600                    1303.5
1039.600                    1307.1
1040.600                    1296.8
1041.600                    1274.9
1042.600                    1272.4
1043.600                    1288.2
1044.600                    1270.5
1045.600                    1398.2
1046.600                    1301.1
1047.600                    1257.3
1048.600                    1290.6
1049.600                    1315.9
1050.600                    1323.2
1051.600                    1248.3
1052.600                    1284.6
1053.600                    1306.8
1054.600                    1374.1
1055.600                    1193.8
1056.600                    1300.6
1057.600                    1344.1
1058.600                    1278.9
1059.600                    1341.1
1060.600                    1321.9
1061.600                    1319.6
1062.600                    1260.9
1063.600                    1282.4
1064.600                    1337.5
1065.600                    1327.8
1066.600                    1323.2
1067.600                    1363
1068.600                    1335.4
1069.600                    1381.1
1070.600                    1371.9
1071.600                    1317.6
1072.600                    1331.7
1073.600                    1311
1074.600                    1227.6
1075.600                    1329.6
1076.600                    1284.6
1077.600                    1289
1078.600                    1251
1079.600                    1277.4
1080.600                    1226.6
1081.600                    1252.8
1082.600                    1266.8
1083.600                    1328.2
1084.600                    1257.5
1085.600                    1259.4
1086.600                    1306.7
1087.600                    1367.9
1088.600                    1470.6
1089.600                    1720.9
1090.600                    1757.9
1091.600                    1609.2
1092.600                    1455.2
1093.600                    1363.6
1094.600                    1256.3
1095.600                    1319.1
1096.600                    1299.2
1097.600                    1295
1098.600                    1325.4
1099.600                    1255.3
1100.600                    1283.5
1101.600                    1283.7
1102.600                    1257.1
1103.600                    1301.3
1104.600                    1198.3
1105.600                    1267.7
1106.600                    1161.3
1107.600                    1303.4
1108.600                    1267.3
1109.600                    1240.8
1110.600                    1283.1
1111.600                    1288.1
1112.600                    1253.1
1113.600                    1265.4
1114.600                    1205.4
1115.600                    1273.7
1116.600                    1209.6
1117.600                    1247.8
1118.600                    1200
1119.600                    1202.7
1120.600                    1242.2
1121.600                    1231
1122.600                    1292
1123.600                    1340.2
1124.600                    1355
1125.600                    1422.4
1126.600                    1294.5
1127.600                    1273.7
1128.600                    1250.9
1129.600                    1256.2
1130.600                    1242.6
1131.600                    1331.1
1132.600                    1281.3
1133.600                    1251.1
1134.600                    1135.9
1135.600                    1138.7
1136.600                    1128.2
1137.600                    1100.6
1138.600                    1221.9
1139.600                    1377.3
1140.600                    1730.1
1141.600                    1706.7
1142.600                    1385.3
1143.600                    1148.1
1144.600                    1052.4
1145.600                    1097.3
1146.600                    1090.5
1147.600                    1031.3
1148.600                    1058.8
1149.600                    1120.9
1150.600                    1171.7
1151.600                    1112.6
1152.600                    1117.9
1153.600                    1153.5
1154.600                    1251.2
1155.600                    1195
1156.600                    1088.2
1157.600                    1017.1
1158.600                     995.4000
1159.600                     965.5000
1160.600                    1030.9
1161.600                     943.0000
1162.600                     935.9000
1163.600                     925.0000
1164.600                     951.5000
1165.600                    1017
1166.600                     976.1000
1167.600                    1039.2
1168.600                    1202.5
1169.600                    1369.8
1170.600                    1348.8
1171.600                    1258.5
1172.600                    1088.2
1173.600                     957.5000
1174.600                     868.7000
1175.600                     908.0000
1176.600                     886.5000
1177.600                     911.1000
1178.600                     888.6000
1179.600                     911.7000
1180.600                     892.6000
1181.600                     870.9000
1182.600                     908.7000
1183.600                     929.4000
1184.600                     849.6000
1185.600                     860.6000
1186.600                     868.8000
1187.600                     877.2000
1188.600                     823.5000
1189.600                     819.0000
1190.600                     847.0000
1191.600                     882.3000
1192.600                     977.6000
1193.600                     931.5000
1194.600                     925.5000
1195.600                     875.1000
1196.600                     837.5000
1197.600                     844.2000
1198.600                     847.9000
1199.600                     829.0000
1200.600                     848.6000
1201.600                     763.0000
1202.600                     807.3000
1203.600                     752.8000
1204.600                     780.1000
1205.600                     795.8000
1206.600                     786.2000
1207.600                     819.1000
1208.600                     775.4000
1209.600                     775.9000
1210.600                     758.3000
1211.600                     742.7000
1212.600                     747.5000
1213.600                     761.8000
1214.600                     772.0000
1215.600                     730.0000
1216.600                     782.2000
1217.600                     833.6000
1218.600                     947.4000
1219.600                     907.9000
1220.600                     893.1000
1221.600                     803.9000
1222.600                     739.7000
1223.600                     712.6000
1224.600                     750.2000
1225.600                     703.1000
1226.600                     688.1000
1227.600                     693.1000
1228.600                     704.0000
1229.600                     716.8000
1230.600                     701.9000
1231.600                     730.2000
1232.600                     735.2000
1233.600                     706.1000
1234.600                     756.1000
1235.600                     720.6000
1236.600                     725.5000
1237.600                     737.4000
1238.600                     685.1000
1239.600                     717.7000
1240.600                     674.6000
1241.600                     625.2000
1242.600                     671.5000
1243.600                     633.5000
1244.600                     635.8000
1245.600                     621.3000
1246.600                     656.6000
1247.600                     680.7000
1248.600                     665.1000
1249.600                     615.9000
1250.600                     613.1000
1251.600                     645.3000
1252.600                     653.0000
1253.600                     661.0000
1254.600                     641.3000
1255.600                     608.7000
1256.600                     620.0000
1257.600                     661.5000
1258.600                     600.9000
1259.600                     584.0000