File: AbuDhabi_data/XPS_UPS_data/LuncoSimulant_LHS-1_powder/XPS--7_C1s.txt
# Transition                      C 1s
# Notes
# Creation Comment
# Energy Mode                     KE
# Start Energy in eV              948.6
# End Energy in eV                978.6
# Energy Step in eV               0.1
# Number Of Sweeps                10
# Dwell Time per Sweep in s       0.3
# Analyser Mode                   CAE
# Pass Energy in eV/Retard Ratio  25
# Magnification                   high
# Divide Voltages By 10           off
# Excitation Source               Mg Ka 1253.6 eV normal
# Excitation Energy in eV         1253.6
# Analyser Workfunction in eV     4.5
# Entrance Slit                   6 x 12 mm
# Exit Slit                       5 x 11 mm
#
#
# Kinetic Energy in eV         Counts
# --------------------         ------
948.600                     4882.5
948.700                     4820
948.800                     4787
948.900                     4742.75
949.000                     4780.75
949.100                     4670.5
949.200                     4737.75
949.300                     4719
949.400                     4727.5
949.500                     4645
949.600                     4700.5
949.700                     4611.75
949.800                     4632.25
949.900                     4678.5
950.000                     4641.25
950.100                     4646.5
950.200                     4742.5
950.300                     4729
950.400                     4733.5
950.500                     4648.25
950.600                     4826.25
950.700                     4724.75
950.800                     4608
950.900                     4649
951.000                     4696.75
951.100                     4704
951.200                     4638.25
951.300                     4709.25
951.400                     4698.75
951.500                     4811.25
951.600                     4803
951.700                     4662.25
951.800                     4654.25
951.900                     4784
952.000                     4651.75
952.100                     4668
952.200                     4695.75
952.300                     4614.75
952.400                     4551.75
952.500                     4546
952.600                     4582.25
952.700                     4587.25
952.800                     4727.75
952.900                     4703.75
953.000                     4662
953.100                     4605
953.200                     4572
953.300                     4644.25
953.400                     4658.75
953.500                     4677
953.600                     4615.25
953.700                     4618.25
953.800                     4596.25
953.900                     4658.75
954.000                     4570.5
954.100                     4640.75
954.200                     4642.75
954.300                     4797.25
954.400                     4704
954.500                     4680.5
954.600                     4670.25
954.700                     4642.25
954.800                     4806.25
954.900                     4751.75
955.000                     4698.75
955.100                     4824
955.200                     4853.25
955.300                     4831.5
955.400                     4761
955.500                     4865.75
955.600                     4822.5
955.700                     4812
955.800                     4808
955.900                     4706.5
956.000                     4743.5
956.100                     4744.5
956.200                     4772.75
956.300                     4766.75
956.400                     4818.25
956.500                     4919
956.600                     4752
956.700                     4766.25
956.800                     4849.5
956.900                     4743.25
957.000                     4870.25
957.100                     4845.5
957.200                     4762
957.300                     4911.75
957.400                     4954
957.500                     4930.5
957.600                     4940
957.700                     5002.5
957.800                     5082.25
957.900                     5072.25
958.000                     5153
958.100                     5162.25
958.200                     5181
958.300                     5358.5
958.400                     5529.5
958.500                     5619.75
958.600                     5668
958.700                     5988.25
958.800                     5987.75
958.900                     6271.25
959.000                     6480
959.100                     6680.25
959.200                     6848.25
959.300                     7024
959.400                     7196.75
959.500                     7380.25
959.600                     7480.75
959.700                     7670.25
959.800                     7720
959.900                     7865.75
960.000                     7735
960.100                     7649.75
960.200                     7561.75
960.300                     7514
960.400                     7460
960.500                     7355.75
960.600                     7141.75
960.700                     7096.75
960.800                     6990
960.900                     6721.75
961.000                     6579
961.100                     6274.25
961.200                     6162.5
961.300                     5949
961.400                     5872.25
961.500                     5633
961.600                     5533
961.700                     5344.5
961.800                     5270.75
961.900                     5238.75
962.000                     5097
962.100                     4958.5
962.200                     4950.5
962.300                     4942.5
962.400                     4804.5
962.500                     4828.75
962.600                     4917.25
962.700                     4791.75
962.800                     4808.5
962.900                     4806.25
963.000                     4885.75
963.100                     4776
963.200                     4744.75
963.300                     4695
963.400                     4725
963.500                     4747.25
963.600                     4744
963.700                     4647.75
963.800                     4600.5
963.900                     4648.75
964.000                     4621.25
964.100                     4593
964.200                     4710
964.300                     4712.75
964.400                     4606.75
964.500                     4526.25
964.600                     4472
964.700                     4600.75
964.800                     4671.25
964.900                     4695
965.000                     4655.75
965.100                     4604.5
965.200                     4653.5
965.300                     4645.25
965.400                     4654.5
965.500                     4605.75
965.600                     4602.25
965.700                     4698.75
965.800                     4717.75
965.900                     4677.5
966.000                     4734.25
966.100                     4589
966.200                     4675.75
966.300                     4700
966.400                     4739.75
966.500                     4830
966.600                     4758.5
966.700                     4814.75
966.800                     4750.25
966.900                     4913.75
967.000                     4876
967.100                     4858.5
967.200                     4954.25
967.300                     4988.5
967.400                     5067.25
967.500                     5085.5
967.600                     5281.25
967.700                     5267.5
967.800                     5193
967.900                     5268.75
968.000                     5267.75
968.100                     5230.5
968.200                     5274.5
968.300                     5204
968.400                     5252
968.500                     5274.75
968.600                     5242.25
968.700                     5152.75
968.800                     5099
968.900                     4939
969.000                     4782.5
969.100                     4858.25
969.200                     4840.75
969.300                     4817.25
969.400                     4712.75
969.500                     4730.5
969.600                     4654.5
969.700                     4708
969.800                     4626.25
969.900                     4626.25
970.000                     4651.25
970.100                     4543.5
970.200                     4528.25
970.300                     4556
970.400                     4500.25
970.500                     4479
970.600                     4455.5
970.700                     4457.75
970.800                     4506.5
970.900                     4485.5
971.000                     4415.75
971.100                     4469.25
971.200                     4444.5
971.300                     4379.75
971.400                     4345.75
971.500                     4382.25
971.600                     4330.25
971.700                     4332
971.800                     4373.75
971.900                     4368.25
972.000                     4209.5
972.100                     4351.25
972.200                     4349.25
972.300                     4295.5
972.400                     4248.75
972.500                     4365.25
972.600                     4314
972.700                     4334.75
972.800                     4184.25
972.900                     4305.75
973.000                     4328.5
973.100                     4204.25
973.200                     4272.25
973.300                     4365.5
973.400                     4377.75
973.500                     4289
973.600                     4327.25
973.700                     4348
973.800                     4232.75
973.900                     4290.25
974.000                     4249.75
974.100                     4224.5
974.200                     4216.5
974.300                     4236.75
974.400                     4265.5
974.500                     4296
974.600                     4259.25
974.700                     4296.25
974.800                     4265
974.900                     4283
975.000                     4300.25
975.100                     4340
975.200                     4255
975.300                     4260.5
975.400                     4337.75
975.500                     4360.5
975.600                     4412.5
975.700                     4313.5
975.800                     4350.25
975.900                     4372.5
976.000                     4301.75
976.100                     4281.25
976.200                     4307.5
976.300                     4384
976.400                     4430.25
976.500                     4483.5
976.600                     4402.5
976.700                     4261
976.800                     4297.75
976.900                     4402.5
977.000                     4431
977.100                     4306.5
977.200                     4296.25
977.300                     4392
977.400                     4351
977.500                     4257.5
977.600                     4329
977.700                     4335.5
977.800                     4331.75
977.900                     4453.25
978.000                     4334.75
978.100                     4396.5
978.200                     4432.25
978.300                     4374.25
978.400                     4384
978.500                     4357.75
978.600                     4433