File: AbuDhabi_data/XPS_UPS_data/LuncoSimulant_LHS-1_powder/XPS--12_Cutoff High.txt
# Transition
# Notes
# Creation Comment
# Energy Mode                     KE
# Start Energy in eV              10
# End Energy in eV                33
# Energy Step in eV               0.05
# Number Of Sweeps                1
# Dwell Time per Sweep in s       0.2
# Analyser Mode                   CAE
# Pass Energy in eV/Retard Ratio  5
# Magnification                   high
# Divide Voltages By 10           on
# Excitation Source               Mg Ka 1253.6 eV normal
# Excitation Energy in eV         1253.6
# Analyser Workfunction in eV     4.5
# Entrance Slit                   6 x 12 mm
# Exit Slit                       5 x 11 mm
#
#
# Kinetic Energy in eV         Counts
# --------------------         ------
10.000                    229211
10.050                    226109
10.100                    222632
10.150                    218987
10.200                    215474
10.250                    212754
10.300                    208986
10.350                    205721
10.400                    202165
10.450                    199100
10.500                    196285
10.550                    193540
10.600                    190693
10.650                    188186
10.700                    185238
10.750                    182901
10.800                    179510
10.850                    177400
10.900                    175129
10.950                    172177
11.000                    170642
11.050                    167866
11.100                    166090
11.150                    163696
11.200                    161967
11.250                    160020
11.300                    158388
11.350                    156147
11.400                    154448
11.450                    153090
11.500                    151439
11.550                    150596
11.600                    148978
11.650                    147440
11.700                    145584
11.750                    144388
11.800                    143238
11.850                    141324
11.900                    139655
11.950                    138789
12.000                    138326
12.050                    136314
12.100                    135027
12.150                    133811
12.200                    133004
12.250                    132467
12.300                    131639
12.350                    130623
12.400                    129306
12.450                    128521
12.500                    128676
12.550                    127755
12.600                    126908
12.650                    126020
12.700                    124942
12.750                    125045
12.800                    124046
12.850                    124222
12.900                    123407
12.950                    123306
13.000                    122995
13.050                    122782
13.100                    121272
13.150                    120874
13.200                    121368
13.250                    121444
13.300                    121135
13.350                    121458
13.400                    121196
13.450                    121486
13.500                    121962
13.550                    122342
13.600                    123285
13.650                    124921
13.700                    125620
13.750                    128471
13.800                    131200
13.850                    134495
13.900                    140001
13.950                    146209
14.000                    155497
14.050                    165866
14.100                    177866
14.150                    189620
14.200                    199584
14.250                    208569
14.300                    215570
14.350                    221604
14.400                    225532
14.450                    227172
14.500                    228234
14.550                    228818
14.600                    228217
14.650                    227320
14.700                    226394
14.750                    225305
14.800                    223676
14.850                    223153
14.900                    220410
14.950                    218066
15.000                    215732
15.050                    213564
15.100                    211484
15.150                    209244
15.200                    206421
15.250                    203424
15.300                    200819
15.350                    197746
15.400                    195035
15.450                    192792
15.500                    189301
15.550                    185720
15.600                    182341
15.650                    179528
15.700                    176473
15.750                    173104
15.800                    170362
15.850                    167214
15.900                    163136
15.950                    160526
16.000                    157577
16.050                    154475
16.100                    151515
16.150                    148038
16.200                    144949
16.250                    141699
16.300                    138932
16.350                    136938
16.400                    133180
16.450                    130507
16.500                    128074
16.550                    125106
16.600                    122449
16.650                    119879
16.700                    117817
16.750                    115064
16.800                    113234
16.850                    110102
16.900                    108205
16.950                    105583
17.000                    103663
17.050                    101582
17.100                     99475.7
17.150                     98274.9
17.200                     95883.1
17.250                     94071.3
17.300                     91452
17.350                     90039
17.400                     88507.6
17.450                     86553.1
17.500                     84908.5
17.550                     83422.1
17.600                     81372.7
17.650                     80243.7
17.700                     78710.9
17.750                     76996.7
17.800                     75981.3
17.850                     73875.3
17.900                     72324.8
17.950                     70838.6
18.000                     70065.2
18.050                     68680.3
18.100                     67338.7
18.150                     65926
18.200                     64586.8
18.250                     63500.5
18.300                     62415.7
18.350                     61128.4
18.400                     59857.3
18.450                     59032.2
18.500                     58117.8
18.550                     56734.3
18.600                     56188.8
18.650                     55204.9
18.700                     54362.5
18.750                     53287.5
18.800                     52231.3
18.850                     51227.4
18.900                     50526.2
18.950                     49403.2
19.000                     48703.2
19.050                     47797.3
19.100                     47041.4
19.150                     46571.4
19.200                     45500.1
19.250                     44780.7
19.300                     44073.8
19.350                     43215.4
19.400                     42719.9
19.450                     41845.4
19.500                     41004.8
19.550                     40496.2
19.600                     39477.6
19.650                     38578.4
19.700                     38597.2
19.750                     38086
19.800                     37494.5
19.850                     36586.9
19.900                     36188.4
19.950                     35314.9
20.000                     34872.1
20.050                     34286.7
20.100                     33931
20.150                     33156
20.200                     33010.7
20.250                     32510
20.300                     31723.7
20.350                     31125
20.400                     30915.7
20.450                     30338.9
20.500                     29462.5
20.550                     29212.8
20.600                     29314.9
20.650                     28977.9
20.700                     28290.2
20.750                     27662.8
20.800                     27360.4
20.850                     26926.9
20.900                     26626.3
20.950                     26341.7
21.000                     26036.4
21.050                     25347.6
21.100                     25187.1
21.150                     24793.3
21.200                     24327.7
21.250                     24162.4
21.300                     23904.4
21.350                     23611
21.400                     23126
21.450                     22719.5
21.500                     22422.8
21.550                     22126.1
21.600                     22096.1
21.650                     21692.8
21.700                     21341
21.750                     21121
21.800                     20675.7
21.850                     20626.8
21.900                     20319.8
21.950                     20055.3
22.000                     19868.7
22.050                     19512.9
22.100                     19475.4
22.150                     19054.1
22.200                     18613.6
22.250                     18647
22.300                     18243.9
22.350                     18004.6
22.400                     17893.8
22.450                     17769.3
22.500                     17568.1
22.550                     17192
22.600                     16990.4
22.650                     16662.8
22.700                     16715.9
22.750                     16474.1
22.800                     16256.5
22.850                     15911.4
22.900                     15757.3
22.950                     15631.4
23.000                     15491.3
23.050                     15409.5
23.100                     15048
23.150                     14831.3
23.200                     14745.6
23.250                     14676.7
23.300                     14726.6
23.350                     14311.1
23.400                     14037.7
23.450                     14059.6
23.500                     13921.1
23.550                     13650.2
23.600                     13574.5
23.650                     13604.4
23.700                     13470.9
23.750                     13205.9
23.800                     13044.3
23.850                     12941.9
23.900                     12626
23.950                     12529.6
24.000                     12353
24.050                     12178.4
24.100                     11969.2
24.150                     11805.3
24.200                     11866.7
24.250                     11781.5
24.300                     11597.2
24.350                     11353.5
24.400                     11433.4
24.450                     11207.6
24.500                     11185.6
24.550                     11075.6
24.600                     10954.2
24.650                     10784
24.700                     10608.9
24.750                     10379.8
24.800                     10546.1
24.850                     10508
24.900                     10283.9
24.950                     10114.5
25.000                     10007.6
25.050                      9855.9
25.100                      9732.6
25.150                      9684.3
25.200                      9546.5
25.250                      9586.1
25.300                      9276.4
25.350                      9293.6
25.400                      9140.3
25.450                      9048
25.500                      8973.5
25.550                      9042.2
25.600                      8882.3
25.650                      8665.7
25.700                      8737.8
25.750                      8482.9
25.800                      8460
25.850                      8525.7
25.900                      8355.7
25.950                      8301.5
26.000                      8215.8
26.050                      8071
26.100                      8155
26.150                      8139
26.200                      7913.1
26.250                      7809.8
26.300                      7720.4
26.350                      7701.6
26.400                      7603.4
26.450                      7538.5
26.500                      7522.3
26.550                      7430.5
26.600                      7379.9
26.650                      7232.3
26.700                      7133.3
26.750                      7055.2
26.800                      7163.9
26.850                      7052.8
26.900                      6870.4
26.950                      6895
27.000                      6763.6
27.050                      6816.9
27.100                      6618.4
27.150                      6607.4
27.200                      6507.4
27.250                      6494.1
27.300                      6540.8
27.350                      6515.3
27.400                      6515.7
27.450                      6361.4
27.500                      6211.3
27.550                      6253.5
27.600                      6268
27.650                      6105.2
27.700                      6044.4
27.750                      6100.8
27.800                      5856.7
27.850                      5790.4
27.900                      5695.8
27.950                      5772.6
28.000                      5726.1
28.050                      5772.4
28.100                      5691.7
28.150                      5624.1
28.200                      5539.8
28.250                      5556.5
28.300                      5490
28.350                      5428.5
28.400                      5501.2
28.450                      5328.2
28.500                      5370.8
28.550                      5421.6
28.600                      5265.3
28.650                      5284.4
28.700                      5179.3
28.750                      5070.9
28.800                      5101.6
28.850                      5101
28.900                      5093
28.950                      4906.1
29.000                      5005.9
29.050                      4969.6
29.100                      4901.7
29.150                      4780.8
29.200                      4798.3
29.250                      4738
29.300                      4721.9
29.350                      4645.9
29.400                      4599.8
29.450                      4542.1
29.500                      4504.4
29.550                      4541.6
29.600                      4458.4
29.650                      4458.5
29.700                      4400.2
29.750                      4406.3
29.800                      4491.3
29.850                      4327.9
29.900                      4202.2
29.950                      4182.4
30.000                      4247.7
30.050                      4118.1
30.100                      4185
30.150                      4141
30.200                      4085.7
30.250                      4136.5
30.300                      3997.5
30.350                      4051.8
30.400                      3919.7
30.450                      3882.9
30.500                      3868.8
30.550                      3934.8
30.600                      3848.3
30.650                      3843.3
30.700                      3898.3
30.750                      3851.8
30.800                      3748.2
30.850                      3725.9
30.900                      3752.8
30.950                      3756.3
31.000                      3671
31.050                      3649.3
31.100                      3754.1
31.150                      3634.4
31.200                      3578.7
31.250                      3595.7
31.300                      3662.3
31.350                      3587
31.400                      3465.1
31.450                      3424.8
31.500                      3393.6
31.550                      3418
31.600                      3362.9
31.650                      3275
31.700                      3280.7
31.750                      3309.6
31.800                      3358.5
31.850                      3249
31.900                      3305.6
31.950                      3141.8
32.000                      3190.1
32.050                      3234.6
32.100                      3153.9
32.150                      3116.7
32.200                      3213
32.250                      3094.3
32.300                      3109.7
32.350                      3098.9
32.400                      3076.6
32.450                      3002.2
32.500                      2902
32.550                      3008.9
32.600                      2979.2
32.650                      2937
32.700                      2993.6
32.750                      2995.1
32.800                      2858.2
32.850                      2840.3
32.900                      2897.4
32.950                      2806.1
33.000                      2837.7